"","RT","RT_bl","RT_tot","acc_bl","acc_tot","answer_debrief_1","answer_debrief_2","answer_debrief_3","answer_debrief_4","background","bidi","blink_onset","block_cnt","block_type","canvas_backend","clock_backend","color_backend","compensation","coordinates","correct","count_block_loop","count_block_seq","count_block_settings","count_check_session","count_drift_correct","count_end_loop","count_end_seq","count_exp_settings","count_experiment","count_feedback","count_instructions","count_log_variables","count_logger","count_new_inline_script","count_new_pygaze_drift_correct","count_new_pygaze_start_recording","count_new_pygaze_stop_recording","count_pygaze","count_start_recording","count_stop_recording","count_test_location","count_trial","count_trial_loop","count_trial_seq","d_eye","datetime","description","disable_garbage_collection","dist_color","dist_high","dist_loc","dist_shape","empty_column","experiment_file","experiment_path","eye_threshold_length","font_bold","font_family","font_italic","font_size","font_underline","foreground","form_clicks","fullscreen","height","high_loc","high_prob_loc","keyboard_backend","live_row","live_row_block_loop","live_row_trial_loop","logfile","mouse_backend","nr_blinks","nr_trials","nr_trials_bl","opensesame_codename","opensesame_version","orient_list_trial","ping","ping_trigger","ping_type","practice","repeat_cycle","response","round_decimals","sampler_backend","session_nr","sound_buf_size","sound_channels","sound_freq","sound_sample_size","start","subject_nr","subject_parity","target_color","target_high","target_loc","target_shape","time_block_loop","time_block_seq","time_block_settings","time_check_session","time_drift_correct","time_end_loop","time_end_seq","time_exp_settings","time_experiment","time_feedback","time_instructions","time_log_variables","time_logger","time_new_inline_script","time_new_pygaze_drift_correct","time_new_pygaze_start_recording","time_new_pygaze_stop_recording","time_pygaze","time_start_recording","time_stop_recording","time_test_location","time_trial","time_trial_loop","time_trial_seq","title","total_blocks","tracker_dev","trial_type","trials_in_block","trigger","uniform_coordinates","update_blinks","width","x","y","toward","containsNaN","rept","repd","prevtar","pd","nt","pd_c","nt_c","tar_dist","dist_dist","prevHP","eegTar","repteeg","tarcounter"
"1",981.145599999756,981.145599999756,981.145599999756,1,1,"n",7,"['2', '2', '4', 'space']","y","#000000","no",3288.42329999998,1,"neutral","psycho","psycho","psycho",0,"uniform",1,0,0,0,NA,0,0,NA,0,0,0,0,0,0,NA,NA,NA,NA,0,0,0,NA,0,0,0,73.2296414732588,"Thu Oct 21 11:41:44 2021","The main experiment item","yes","green","no","None","circle",NA,"pinging_target_expectations 4.0.osexp","C:\Users\etp-cp-ping\Desktop\LABSSRV-EXP",75,"no","mono","no",18,"no","white","no","yes",1050,NA,100,"psycho",0,0,0,"C:/Users/etp-cp-ping/Desktop/LABSSRV-EXP/subject-3.csv","psycho",0,1,1,"Lentiform Loewenfeld","3.3.8","['vert', 'vert', 'vert', 'hori', 'hori', 'hori', 'hori', 'vert']","no",209,"None","yes",0,NA,2,"legacy",NA,1024,2,48000,-16,"experiment",3,"odd","red","no",1,"diamond",399282.4091,399336.9108,399336.952,NA,401250.3864,NA,NA,95125.9435999996,3293.27339999963,NA,95125.9656999996,402494.0079,405299.494899999,NA,NA,NA,NA,3293.35319999973,401963.7622,NA,NA,402494.0242,402489.6346,402493.9219,"New experiment",19,"[0]","dist_absent",56,29,"yes","yes",1680,NA,NA,NA,NA,"NR","NR","lp",NA,"Left",NA,NA,NA,NA,"practice",999,"NR","in"
"2",2000.6655999996,2981.81119999936,2981.81119999936,1,1,"n",7,"['2', '2', '4', 'space']","y","#000000","no",3288.42329999998,1,"neutral","psycho","psycho","psycho",0,"uniform",0,0,0,0,NA,0,0,NA,0,0,0,0,1,1,NA,NA,NA,NA,0,0,0,NA,1,0,1,73.2296414732588,"Thu Oct 21 11:41:44 2021","The main experiment item","yes","green","no","5","diamond",NA,"pinging_target_expectations 4.0.osexp","C:\Users\etp-cp-ping\Desktop\LABSSRV-EXP",75,"no","mono","no",18,"no","white","no","yes",1050,NA,100,"psycho",1,0,1,"C:/Users/etp-cp-ping/Desktop/LABSSRV-EXP/subject-3.csv","psycho",0,2,2,"Lentiform Loewenfeld","3.3.8","['hori', 'vert', 'hori', 'vert', 'hori', 'hori', 'vert', 'vert']","yes",109,"diamond","yes",0,NA,2,"legacy",NA,1024,2,48000,-16,"experiment",3,"odd","red","no",7,"circle",399282.4091,399336.9108,399336.952,NA,401250.3864,NA,NA,95125.9435999996,3293.27339999963,NA,95125.9656999996,405409.7169,409256.6233,NA,NA,NA,NA,3293.35319999973,401963.7622,NA,NA,405409.731,402489.6346,405409.6683,"New experiment",19,"[0]","dist_present",56,86,"yes","yes",1680,NA,NA,NA,NA,"NR","NR","lp",NA,NA,NA,NA,NA,NA,"practice",1,"NR","in"
"3",796.655699999945,3778.4668999993,3778.4668999993,1,1,"n",7,"['2', '2', '4', 'space']","y","#000000","no",3288.42329999998,1,"neutral","psycho","psycho","psycho",0,"uniform",0,0,0,0,NA,0,0,NA,0,0,0,0,2,2,NA,NA,NA,NA,0,0,0,NA,2,0,2,73.2296414732588,"Thu Oct 21 11:41:44 2021","The main experiment item","yes","green","no","1","diamond",NA,"pinging_target_expectations 4.0.osexp","C:\Users\etp-cp-ping\Desktop\LABSSRV-EXP",75,"no","mono","no",18,"no","white","no","yes",1050,NA,100,"psycho",2,0,2,"C:/Users/etp-cp-ping/Desktop/LABSSRV-EXP/subject-3.csv","psycho",0,3,3,"Lentiform Loewenfeld","3.3.8","['vert', 'vert', 'vert', 'hori', 'hori', 'hori', 'hori', 'vert']","no",209,"None","yes",0,NA,2,"legacy",NA,1024,2,48000,-16,"experiment",3,"odd","red","no",7,"circle",399282.4091,399336.9108,399336.952,NA,401250.3864,NA,NA,95125.9435999996,3293.27339999963,NA,95125.9656999996,409320.8051,411795.4977,NA,NA,NA,NA,3293.35319999973,401963.7622,NA,NA,409320.819699999,402489.6346,409320.7554,"New experiment",19,"[0]","dist_present",56,82,"yes","yes",1680,NA,NA,NA,NA,"R","NR","lp",NA,NA,NA,NA,NA,NA,"practice",7,"NR","in"
"4",743.202099999529,4521.66899999883,4521.66899999883,2,2,"n",7,"['2', '2', '4', 'space']","y","#000000","no",3288.42329999998,1,"neutral","psycho","psycho","psycho",0,"uniform",1,0,0,0,NA,0,0,NA,0,0,0,0,3,3,NA,NA,NA,NA,0,0,0,NA,3,0,3,73.2296414732588,"Thu Oct 21 11:41:44 2021","The main experiment item","yes","green","no","None","circle",NA,"pinging_target_expectations 4.0.osexp","C:\Users\etp-cp-ping\Desktop\LABSSRV-EXP",75,"no","mono","no",18,"no","white","no","yes",1050,NA,100,"psycho",3,0,3,"C:/Users/etp-cp-ping/Desktop/LABSSRV-EXP/subject-3.csv","psycho",0,4,4,"Lentiform Loewenfeld","3.3.8","['hori', 'vert', 'hori', 'hori', 'vert', 'hori', 'vert', 'vert']","yes",109,"diamond","yes",0,NA,2,"legacy",NA,1024,2,48000,-16,"experiment",3,"odd","red","no",5,"diamond",399282.4091,399336.9108,399336.952,NA,401250.3864,NA,NA,95125.9435999996,3293.27339999963,NA,95125.9656999996,411859.1685,414563.5163,NA,NA,NA,NA,3293.35319999973,401963.7622,NA,NA,411859.1827,402489.6346,411859.1187,"New experiment",19,"[0]","dist_absent",56,69,"yes","yes",1680,NA,NA,NA,NA,"NR","NR","lp",NA,"Right",NA,NA,NA,NA,"practice",7,"R","in"
"5",759.467300000368,5281.1362999992,5281.1362999992,3,3,"n",7,"['2', '2', '4', 'space']","y","#000000","no",3288.42329999998,1,"neutral","psycho","psycho","psycho",0,"uniform",1,0,0,0,NA,0,0,NA,0,0,0,0,4,4,NA,NA,NA,NA,0,0,0,NA,4,0,4,73.2296414732588,"Thu Oct 21 11:41:44 2021","The main experiment item","yes","green","no","6","circle",NA,"pinging_target_expectations 4.0.osexp","C:\Users\etp-cp-ping\Desktop\LABSSRV-EXP",75,"no","mono","no",18,"no","white","no","yes",1050,NA,100,"psycho",4,0,4,"C:/Users/etp-cp-ping/Desktop/LABSSRV-EXP/subject-3.csv","psycho",0,5,5,"Lentiform Loewenfeld","3.3.8","['hori', 'hori', 'hori', 'vert', 'vert', 'vert', 'hori', 'vert']","yes",109,"diamond","yes",0,NA,2,"legacy",NA,1024,2,48000,-16,"experiment",3,"odd","red","no",2,"diamond",399282.4091,399336.9108,399336.952,NA,401250.3864,NA,NA,95125.9435999996,3293.27339999963,NA,95125.9656999996,414633.9174,417347.5011,NA,NA,NA,NA,3293.35319999973,401963.7622,NA,NA,414633.9314,402489.6346,414633.8672,"New experiment",19,"[0]","dist_present",56,37,"yes","yes",1680,NA,NA,NA,NA,"NR","NR","lp",NA,NA,NA,NA,NA,NA,"practice",5,"NR","in"
"6",685.830700000224,5966.96699999942,5966.96699999942,4,4,"n",7,"['2', '2', '4', 'space']","y","#000000","no",3288.42329999998,1,"neutral","psycho","psycho","psycho",0,"uniform",1,0,0,0,NA,0,0,NA,0,0,0,0,5,5,NA,NA,NA,NA,0,0,0,NA,5,0,5,73.2296414732588,"Thu Oct 21 11:41:44 2021","The main experiment item","yes","green","no","7","circle",NA,"pinging_target_expectations 4.0.osexp","C:\Users\etp-cp-ping\Desktop\LABSSRV-EXP",75,"no","mono","no",18,"no","white","no","yes",1050,NA,100,"psycho",5,0,5,"C:/Users/etp-cp-ping/Desktop/LABSSRV-EXP/subject-3.csv","psycho",0,6,6,"Lentiform Loewenfeld","3.3.8","['vert', 'vert', 'vert', 'hori', 'hori', 'hori', 'vert', 'hori']","yes",109,"diamond","yes",0,NA,2,"legacy",NA,1024,2,48000,-16,"experiment",3,"odd","red","no",5,"diamond",399282.4091,399336.9108,399336.952,NA,401250.3864,NA,NA,95125.9435999996,3293.27339999963,NA,95125.9656999996,417432.7975,419763.512699999,NA,NA,NA,NA,3293.35319999973,401963.7622,NA,NA,417432.8116,402489.6346,417432.7488,"New experiment",19,"[0, 75.5349726760278, 77.08656278250602, 77.57504849765942, 77.31476473921964, 77.07562948905158]","dist_present",56,68,"yes","yes",1680,NA,NA,NA,NA,"NR","NR","lp",NA,NA,NA,NA,NA,NA,"practice",2,"NR","in"
"7",1421.35499999952,7388.32199999894,7388.32199999894,5,5,"n",7,"['2', '2', '4', 'space']","y","#000000","no",3288.42329999998,1,"neutral","psycho","psycho","psycho",0,"uniform",1,0,0,0,NA,0,0,NA,0,0,0,0,6,6,NA,NA,NA,NA,0,0,0,NA,6,0,6,73.2296414732588,"Thu Oct 21 11:41:44 2021","The main experiment item","yes","red","no","0","diamond",NA,"pinging_target_expectations 4.0.osexp","C:\Users\etp-cp-ping\Desktop\LABSSRV-EXP",75,"no","mono","no",18,"no","white","no","yes",1050,NA,100,"psycho",6,0,6,"C:/Users/etp-cp-ping/Desktop/LABSSRV-EXP/subject-3.csv","psycho",0,7,7,"Lentiform Loewenfeld","3.3.8","['hori', 'vert', 'vert', 'hori', 'vert', 'hori', 'vert', 'hori']","no",209,"None","yes",0,NA,2,"legacy",NA,1024,2,48000,-16,"experiment",3,"odd","green","no",4,"circle",399282.4091,399336.9108,399336.952,NA,401250.3864,NA,NA,95125.9435999996,3293.27339999963,NA,95125.9656999996,419834.162499999,423251.5488,NA,NA,NA,NA,3293.35319999973,401963.7622,NA,NA,419834.176599999,402489.6346,419834.1125,"New experiment",19,"[0]","dist_present",56,51,"yes","yes",1680,NA,NA,NA,NA,"NR","NR","lp",NA,NA,NA,NA,NA,NA,"practice",5,"NR","in"
"8",937.168200000073,8325.49019999901,8325.49019999901,6,6,"n",7,"['2', '2', '4', 'space']","y","#000000","no",3288.42329999998,1,"neutral","psycho","psycho","psycho",0,"uniform",1,0,0,0,NA,0,0,NA,0,0,0,0,7,7,NA,NA,NA,NA,0,0,0,NA,7,0,7,73.2296414732588,"Thu Oct 21 11:41:44 2021","The main experiment item","yes","green","no","5","circle",NA,"pinging_target_expectations 4.0.osexp","C:\Users\etp-cp-ping\Desktop\LABSSRV-EXP",75,"no","mono","no",18,"no","white","no","yes",1050,NA,100,"psycho",7,0,7,"C:/Users/etp-cp-ping/Desktop/LABSSRV-EXP/subject-3.csv","psycho",0,8,8,"Lentiform Loewenfeld","3.3.8","['hori', 'hori', 'vert', 'vert', 'hori', 'vert', 'hori', 'vert']","yes",109,"diamond","yes",0,NA,2,"legacy",NA,1024,2,48000,-16,"experiment",3,"odd","red","no",6,"diamond",399282.4091,399336.9108,399336.952,NA,401250.3864,NA,NA,95125.9435999996,3293.27339999963,NA,95125.9656999996,423324.8976,426227.5926,NA,NA,NA,NA,3293.35319999973,401963.7622,NA,NA,423324.9114,402489.6346,423324.847,"New experiment",19,"[0]","dist_present",56,76,"yes","yes",1680,NA,NA,NA,NA,"NR","NR","lp",NA,NA,NA,NA,NA,NA,"practice",4,"NR","in"
"9",935.982899999537,9261.47309999855,9261.47309999855,7,7,"n",7,"['2', '2', '4', 'space']","y","#000000","no",3288.42329999998,1,"neutral","psycho","psycho","psycho",0,"uniform",1,0,0,0,NA,0,0,NA,0,0,0,0,8,8,NA,NA,NA,NA,0,0,0,NA,8,0,8,73.2296414732588,"Thu Oct 21 11:41:44 2021","The main experiment item","yes","green","no","5","diamond",NA,"pinging_target_expectations 4.0.osexp","C:\Users\etp-cp-ping\Desktop\LABSSRV-EXP",75,"no","mono","no",18,"no","white","no","yes",1050,NA,100,"psycho",8,0,8,"C:/Users/etp-cp-ping/Desktop/LABSSRV-EXP/subject-3.csv","psycho",0,9,9,"Lentiform Loewenfeld","3.3.8","['vert', 'vert', 'hori', 'vert', 'hori', 'hori', 'hori', 'vert']","no",209,"None","yes",0,NA,2,"legacy",NA,1024,2,48000,-16,"experiment",3,"odd","red","no",2,"circle",399282.4091,399336.9108,399336.952,NA,401250.3864,NA,NA,95125.9435999996,3293.27339999963,NA,95125.9656999996,426298.7591,429219.534,NA,NA,NA,NA,3293.35319999973,401963.7622,NA,NA,426298.7734,402489.6346,426298.7077,"New experiment",19,"[0]","dist_present",56,36,"yes","yes",1680,NA,NA,NA,NA,"NR","R","lp",NA,NA,NA,NA,NA,NA,"practice",6,"NR","in"
"10",749.276100000367,10010.7491999989,10010.7491999989,8,8,"n",7,"['2', '2', '4', 'space']","y","#000000","no",3288.42329999998,1,"neutral","psycho","psycho","psycho",0,"uniform",1,0,0,0,NA,0,0,NA,0,0,0,0,9,9,NA,NA,NA,NA,0,0,0,NA,9,0,9,73.2296414732588,"Thu Oct 21 11:41:44 2021","The main experiment item","yes","red","no","6","diamond",NA,"pinging_target_expectations 4.0.osexp","C:\Users\etp-cp-ping\Desktop\LABSSRV-EXP",75,"no","mono","no",18,"no","white","no","yes",1050,NA,100,"psycho",9,0,9,"C:/Users/etp-cp-ping/Desktop/LABSSRV-EXP/subject-3.csv","psycho",0,10,10,"Lentiform Loewenfeld","3.3.8","['hori', 'vert', 'hori', 'hori', 'vert', 'hori', 'vert', 'vert']","no",209,"None","yes",0,NA,2,"legacy",NA,1024,2,48000,-16,"experiment",3,"odd","green","no",5,"circle",399282.4091,399336.9108,399336.952,NA,401250.3864,NA,NA,95125.9435999996,3293.27339999963,NA,95125.9656999996,429289.5155,431795.472,NA,NA,NA,NA,3293.35319999973,401963.7622,NA,NA,429289.5301,402489.6346,429289.4623,"New experiment",19,"[0]","dist_present",56,67,"yes","yes",1680,NA,NA,NA,NA,"NR","NR","lp",NA,NA,NA,NA,NA,NA,"practice",2,"NR","in"
"11",781.488800000283,10792.2379999992,10792.2379999992,9,9,"n",7,"['2', '2', '4', 'space']","y","#000000","no",3288.42329999998,1,"neutral","psycho","psycho","psycho",0,"uniform",1,0,0,0,NA,0,0,NA,0,0,0,0,10,10,NA,NA,NA,NA,0,0,0,NA,10,0,10,73.2296414732588,"Thu Oct 21 11:41:44 2021","The main experiment item","yes","red","no","1","circle",NA,"pinging_target_expectations 4.0.osexp","C:\Users\etp-cp-ping\Desktop\LABSSRV-EXP",75,"no","mono","no",18,"no","white","no","yes",1050,NA,100,"psycho",10,0,10,"C:/Users/etp-cp-ping/Desktop/LABSSRV-EXP/subject-3.csv","psycho",0,11,11,"Lentiform Loewenfeld","3.3.8","['hori', 'vert', 'hori', 'vert', 'hori', 'vert', 'hori', 'vert']","no",209,"None","yes",0,NA,2,"legacy",NA,1024,2,48000,-16,"experiment",3,"odd","green","no",2,"diamond",399282.4091,399336.9108,399336.952,NA,401250.3864,NA,NA,95125.9435999996,3293.27339999963,NA,95125.9656999996,431853.6752,434563.6231,NA,NA,NA,NA,3293.35319999973,401963.7622,NA,NA,431853.69,402489.6346,431853.6084,"New experiment",19,"[0]","dist_present",56,32,"yes","yes",1680,NA,NA,NA,NA,"NR","NR","lp",NA,NA,NA,NA,NA,NA,"practice",5,"NR","in"
"12",1767.21559999988,12559.4535999991,12559.4535999991,9,9,"n",7,"['2', '2', '4', 'space']","y","#000000","no",3288.42329999998,1,"neutral","psycho","psycho","psycho",0,"uniform",0,0,0,0,NA,0,0,NA,0,0,0,0,11,11,NA,NA,NA,NA,0,0,0,NA,11,0,11,73.2296414732588,"Thu Oct 21 11:41:44 2021","The main experiment item","yes","red","no","6","circle",NA,"pinging_target_expectations 4.0.osexp","C:\Users\etp-cp-ping\Desktop\LABSSRV-EXP",75,"no","mono","no",18,"no","white","no","yes",1050,NA,100,"psycho",11,0,11,"C:/Users/etp-cp-ping/Desktop/LABSSRV-EXP/subject-3.csv","psycho",0,12,12,"Lentiform Loewenfeld","3.3.8","['hori', 'hori', 'vert', 'hori', 'vert', 'hori', 'vert', 'vert']","yes",109,"diamond","yes",0,NA,2,"legacy",NA,1024,2,48000,-16,"experiment",3,"odd","green","no",5,"diamond",399282.4091,399336.9108,399336.952,NA,401250.3864,NA,NA,95125.9435999996,3293.27339999963,NA,95125.9656999996,434627.9772,438515.5499,NA,NA,NA,NA,3293.35319999973,401963.7622,NA,NA,434627.9913,402489.6346,434627.9286,"New experiment",19,"[0]","dist_present",56,67,"yes","yes",1680,NA,NA,NA,NA,"NR","NR","lp",NA,NA,NA,NA,NA,NA,"practice",2,"NR","in"
"13",1056.44239999948,13615.8959999986,13615.8959999986,10,10,"n",7,"['2', '2', '4', 'space']","y","#000000","no",3288.42329999998,1,"neutral","psycho","psycho","psycho",0,"uniform",1,0,0,0,NA,0,0,NA,0,0,0,0,12,12,NA,NA,NA,NA,0,0,0,NA,12,0,12,73.2296414732588,"Thu Oct 21 11:41:44 2021","The main experiment item","yes","red","no","None","diamond",NA,"pinging_target_expectations 4.0.osexp","C:\Users\etp-cp-ping\Desktop\LABSSRV-EXP",75,"no","mono","no",18,"no","white","no","yes",1050,NA,100,"psycho",12,0,12,"C:/Users/etp-cp-ping/Desktop/LABSSRV-EXP/subject-3.csv","psycho",0,13,13,"Lentiform Loewenfeld","3.3.8","['hori', 'vert', 'hori', 'hori', 'hori', 'vert', 'vert', 'vert']","yes",109,"circles","yes",0,NA,2,"legacy",NA,1024,2,48000,-16,"experiment",3,"odd","green","no",4,"circle",399282.4091,399336.9108,399336.952,NA,401250.3864,NA,NA,95125.9435999996,3293.27339999963,NA,95125.9656999996,438587.2097,441507.4702,NA,NA,NA,NA,3293.35319999973,401963.7622,NA,NA,438587.2241,402489.6346,438587.1595,"New experiment",19,"[0]","dist_absent",56,59,"yes","yes",1680,NA,NA,NA,NA,"NR","NR","lp",NA,NA,NA,NA,NA,NA,"practice",5,"NR","in"
"14",886.493000000017,14502.3889999986,14502.3889999986,10,10,"n",7,"['2', '2', '4', 'space']","y","#000000","no",3288.42329999998,1,"neutral","psycho","psycho","psycho",0,"uniform",0,0,0,0,NA,0,0,NA,0,0,0,0,13,13,NA,NA,NA,NA,0,0,0,NA,13,0,13,73.2296414732588,"Thu Oct 21 11:41:44 2021","The main experiment item","yes","red","no","1","circle",NA,"pinging_target_expectations 4.0.osexp","C:\Users\etp-cp-ping\Desktop\LABSSRV-EXP",75,"no","mono","no",18,"no","white","no","yes",1050,NA,100,"psycho",13,0,13,"C:/Users/etp-cp-ping/Desktop/LABSSRV-EXP/subject-3.csv","psycho",0,14,14,"Lentiform Loewenfeld","3.3.8","['hori', 'hori', 'hori', 'hori', 'vert', 'vert', 'vert', 'vert']","no",209,"None","yes",0,NA,2,"legacy",NA,1024,2,48000,-16,"experiment",3,"odd","green","no",7,"diamond",399282.4091,399336.9108,399336.952,NA,401250.3864,NA,NA,95125.9435999996,3293.27339999963,NA,95125.9656999996,441569.8145,444547.4697,NA,NA,NA,NA,3293.35319999973,401963.7622,NA,NA,441569.828799999,402489.6346,441569.7642,"New experiment",19,"[0]","dist_present",56,82,"yes","yes",1680,NA,NA,NA,NA,"NR","NR","lp",NA,NA,NA,NA,NA,NA,"practice",4,"NR","in"
"15",1275.91229999962,15778.3012999982,15778.3012999982,10,10,"n",7,"['2', '2', '4', 'space']","y","#000000","no",3288.42329999998,1,"neutral","psycho","psycho","psycho",0,"uniform",0,0,0,0,NA,0,0,NA,0,0,0,0,14,14,NA,NA,NA,NA,0,0,0,NA,14,0,14,73.2296414732588,"Thu Oct 21 11:41:44 2021","The main experiment item","yes","green","no","7","diamond",NA,"pinging_target_expectations 4.0.osexp","C:\Users\etp-cp-ping\Desktop\LABSSRV-EXP",75,"no","mono","no",18,"no","white","no","yes",1050,NA,100,"psycho",14,0,14,"C:/Users/etp-cp-ping/Desktop/LABSSRV-EXP/subject-3.csv","psycho",0,15,15,"Lentiform Loewenfeld","3.3.8","['vert', 'hori', 'hori', 'vert', 'hori', 'hori', 'vert', 'vert']","yes",109,"diamond","yes",0,NA,2,"legacy",NA,1024,2,48000,-16,"experiment",3,"odd","red","no",0,"circle",399282.4091,399336.9108,399336.952,NA,401250.3864,NA,NA,95125.9435999996,3293.27339999963,NA,95125.9656999996,444616.7305,447939.5284,NA,NA,NA,NA,3293.35319999973,401963.7622,NA,NA,444616.7446,402489.6346,444616.680499999,"New experiment",19,"[0, 73.96351309620167]","dist_present",56,18,"yes","yes",1680,NA,NA,NA,NA,"NR","NR","lp","Right",NA,NA,NA,NA,NA,"practice",7,"NR","in"
"16",1073.1716,16851.4728999982,16851.4728999982,11,11,"n",7,"['2', '2', '4', 'space']","y","#000000","no",448303.949499999,1,"neutral","psycho","psycho","psycho",0,"uniform",1,0,0,0,NA,0,0,NA,0,0,0,0,15,15,NA,NA,NA,NA,0,0,0,NA,15,0,15,73.2296414732588,"Thu Oct 21 11:41:44 2021","The main experiment item","yes","green","no","None","circle",NA,"pinging_target_expectations 4.0.osexp","C:\Users\etp-cp-ping\Desktop\LABSSRV-EXP",75,"no","mono","no",18,"no","white","no","yes",1050,NA,100,"psycho",15,0,15,"C:/Users/etp-cp-ping/Desktop/LABSSRV-EXP/subject-3.csv","psycho",1,16,16,"Lentiform Loewenfeld","3.3.8","['hori', 'vert', 'hori', 'vert', 'hori', 'hori', 'vert', 'vert']","yes",109,"circles","yes",0,NA,2,"legacy",NA,1024,2,48000,-16,"experiment",3,"odd","red","no",6,"diamond",399282.4091,399336.9108,399336.952,NA,401250.3864,NA,NA,95125.9435999996,3293.27339999963,NA,95125.9656999996,448001.2581,450835.5233,NA,NA,NA,NA,3293.35319999973,401963.7622,NA,NA,448001.272,402489.6346,448001.208799999,"New experiment",19,"[0, 279.49063031973725, 291.8296523759366, 308.8191016105261, 322.2285679451777, 342.74290716243485, 357.3058909765744, 369.3390704619913, 389.98595006117563, 398.3913983898697, 415.7401693288187, 428.78641905272985, 451.8306006563226, 469.97436320539197, 484.10297756087135, 507.61651767943744, 511.1495594672419, 540.1234478894266, 551.9154762261603, 566.3034849533535, 607.5932840344057, 608.3507513635292, 622.8351517809075, 630.5387379369049, 647.0777401116881, 657.0346416696813, 663.3043394225458, 679.1421145445549, 690.3725564446323, 698.3398389407955, 724.8770098534396, 726.7794438815881, 739.2524968633213, 750.725146990057, 760.2001439215609, 768.0394565253713, 775.826020853767, 789.351370526678, 798.994572390193, 813.8332350774344, 812.5670757499198, 811.2885817096782]","dist_absent",56,79,"yes","no",1680,NA,NA,NA,NA,"NR","NR","lp",NA,"Right",NA,"Right",NA,NA,"practice",0,"NR","in"
"17",914.844599999953,17766.3174999981,17766.3174999981,12,12,"n",7,"['2', '2', '4', 'space']","y","#000000","no",448303.949499999,1,"neutral","psycho","psycho","psycho",0,"uniform",1,0,0,0,NA,0,0,NA,0,0,0,0,16,16,NA,NA,NA,NA,0,0,0,NA,16,0,16,73.2296414732588,"Thu Oct 21 11:41:44 2021","The main experiment item","yes","green","no","3","circle",NA,"pinging_target_expectations 4.0.osexp","C:\Users\etp-cp-ping\Desktop\LABSSRV-EXP",75,"no","mono","no",18,"no","white","no","yes",1050,NA,100,"psycho",16,0,16,"C:/Users/etp-cp-ping/Desktop/LABSSRV-EXP/subject-3.csv","psycho",1,17,17,"Lentiform Loewenfeld","3.3.8","['vert', 'hori', 'hori', 'hori', 'vert', 'vert', 'vert', 'hori']","yes",109,"diamond","yes",0,NA,2,"legacy",NA,1024,2,48000,-16,"experiment",3,"odd","red","no",1,"diamond",399282.4091,399336.9108,399336.952,NA,401250.3864,NA,NA,95125.9435999996,3293.27339999963,NA,95125.9656999996,450908.9095,453811.5563,NA,NA,NA,NA,3293.35319999973,401963.7622,NA,NA,450908.923999999,402489.6346,450908.8586,"New experiment",19,"[0]","dist_present",56,24,"yes","yes",1680,NA,NA,NA,NA,"NR","NR","lp",NA,NA,NA,NA,NA,NA,"practice",6,"NR","in"
"18",1107.96439999924,18874.2818999974,18874.2818999974,13,13,"n",7,"['2', '2', '4', 'space']","y","#000000","no",448303.949499999,1,"neutral","psycho","psycho","psycho",0,"uniform",1,0,0,0,NA,0,0,NA,0,0,0,0,17,17,NA,NA,NA,NA,0,0,0,NA,17,0,17,73.2296414732588,"Thu Oct 21 11:41:44 2021","The main experiment item","yes","green","no","2","diamond",NA,"pinging_target_expectations 4.0.osexp","C:\Users\etp-cp-ping\Desktop\LABSSRV-EXP",75,"no","mono","no",18,"no","white","no","yes",1050,NA,100,"psycho",17,0,17,"C:/Users/etp-cp-ping/Desktop/LABSSRV-EXP/subject-3.csv","psycho",1,18,18,"Lentiform Loewenfeld","3.3.8","['vert', 'vert', 'vert', 'vert', 'hori', 'hori', 'hori', 'hori']","yes",109,"circles","yes",0,NA,2,"legacy",NA,1024,2,48000,-16,"experiment",3,"odd","red","no",3,"circle",399282.4091,399336.9108,399336.952,NA,401250.3864,NA,NA,95125.9435999996,3293.27339999963,NA,95125.9656999996,453883.1171,456867.5881,NA,NA,NA,NA,3293.35319999973,401963.7622,NA,NA,453883.1312,402489.6346,453883.0676,"New experiment",19,"[0, 73.61282023022103, 74.0565190425293, 74.52012913298553]","dist_present",56,43,"yes","yes",1680,NA,NA,NA,NA,"NR","NR","lp",NA,NA,NA,NA,NA,NA,"practice",1,"NR","in"
"19",2000.82349999959,20875.105399997,20875.105399997,13,13,"n",7,"['2', '2', '4', 'space']","y","#000000","no",448303.949499999,1,"neutral","psycho","psycho","psycho",0,"uniform",0,0,0,0,NA,0,0,NA,0,0,0,0,18,18,NA,NA,NA,NA,0,0,0,NA,18,0,18,73.2296414732588,"Thu Oct 21 11:41:44 2021","The main experiment item","yes","red","no","5","diamond",NA,"pinging_target_expectations 4.0.osexp","C:\Users\etp-cp-ping\Desktop\LABSSRV-EXP",75,"no","mono","no",18,"no","white","no","yes",1050,NA,100,"psycho",18,0,18,"C:/Users/etp-cp-ping/Desktop/LABSSRV-EXP/subject-3.csv","psycho",1,19,19,"Lentiform Loewenfeld","3.3.8","['hori', 'vert', 'vert', 'hori', 'vert', 'hori', 'vert', 'hori']","no",209,"None","yes",0,NA,2,"legacy",NA,1024,2,48000,-16,"experiment",3,"odd","green","no",6,"circle",399282.4091,399336.9108,399336.952,NA,401250.3864,NA,NA,95125.9435999996,3293.27339999963,NA,95125.9656999996,456938.175499999,460852.8503,NA,NA,NA,NA,3293.35319999973,401963.7622,NA,NA,456938.189699999,402489.6346,456938.1255,"New experiment",19,"[0]","dist_present",56,76,"yes","yes",1680,NA,NA,NA,NA,"NR","NR","lp",NA,NA,NA,NA,NA,NA,"practice",3,"NR","in"
"20",998.958600000129,21874.0639999971,21874.0639999971,13,13,"n",7,"['2', '2', '4', 'space']","y","#000000","no",448303.949499999,1,"neutral","psycho","psycho","psycho",0,"uniform",0,0,0,0,NA,0,0,NA,0,0,0,0,19,19,NA,NA,NA,NA,0,0,0,NA,19,0,19,73.2296414732588,"Thu Oct 21 11:41:44 2021","The main experiment item","yes","green","no","None","diamond",NA,"pinging_target_expectations 4.0.osexp","C:\Users\etp-cp-ping\Desktop\LABSSRV-EXP",75,"no","mono","no",18,"no","white","no","yes",1050,NA,100,"psycho",19,0,19,"C:/Users/etp-cp-ping/Desktop/LABSSRV-EXP/subject-3.csv","psycho",1,20,20,"Lentiform Loewenfeld","3.3.8","['hori', 'vert', 'vert', 'hori', 'vert', 'vert', 'hori', 'hori']","yes",109,"circles","yes",0,NA,2,"legacy",NA,1024,2,48000,-16,"experiment",3,"odd","red","no",0,"circle",399282.4091,399336.9108,399336.952,NA,401250.3864,NA,NA,95125.9435999996,3293.27339999963,NA,95125.9656999996,460928.9862,463843.542,NA,NA,NA,NA,3293.35319999973,401963.7622,NA,NA,460929.000499999,402489.6346,460928.9343,"New experiment",19,"[0]","dist_absent",56,19,"yes","yes",1680,NA,NA,NA,NA,"NR","NR","lp",NA,NA,NA,NA,NA,NA,"practice",6,"NR","in"
"21",2000.10490000027,23874.1688999974,23874.1688999974,13,13,"n",7,"['2', '2', '4', 'space']","y","#000000","no",448303.949499999,1,"neutral","psycho","psycho","psycho",0,"uniform",0,0,0,0,NA,0,0,NA,0,0,0,0,20,20,NA,NA,NA,NA,0,0,0,NA,20,0,20,73.2296414732588,"Thu Oct 21 11:41:44 2021","The main experiment item","yes","red","no","0","diamond",NA,"pinging_target_expectations 4.0.osexp","C:\Users\etp-cp-ping\Desktop\LABSSRV-EXP",75,"no","mono","no",18,"no","white","no","yes",1050,NA,100,"psycho",20,0,20,"C:/Users/etp-cp-ping/Desktop/LABSSRV-EXP/subject-3.csv","psycho",1,21,21,"Lentiform Loewenfeld","3.3.8","['hori', 'vert', 'hori', 'hori', 'vert', 'vert', 'vert', 'hori']","no",209,"None","yes",0,NA,2,"legacy",NA,1024,2,48000,-16,"experiment",3,"odd","green","no",3,"circle",399282.4091,399336.9108,399336.952,NA,401250.3864,NA,NA,95125.9435999996,3293.27339999963,NA,95125.9656999996,463919.7006,467612.384999999,NA,NA,NA,NA,3293.35319999973,401963.7622,NA,NA,463919.7151,402489.6346,463919.6514,"New experiment",19,"[0]","dist_present",56,41,"yes","yes",1680,NA,NA,NA,NA,"NR","NR","lp",NA,"Left",NA,NA,NA,NA,"practice",0,"NR","in"
"22",862.595700000413,24736.7645999978,24736.7645999978,14,14,"n",7,"['2', '2', '4', 'space']","y","#000000","no",448303.949499999,1,"neutral","psycho","psycho","psycho",0,"uniform",1,0,0,0,NA,0,0,NA,0,0,0,0,21,21,NA,NA,NA,NA,0,0,0,NA,21,0,21,73.2296414732588,"Thu Oct 21 11:41:44 2021","The main experiment item","yes","green","no","2","diamond",NA,"pinging_target_expectations 4.0.osexp","C:\Users\etp-cp-ping\Desktop\LABSSRV-EXP",75,"no","mono","no",18,"no","white","no","yes",1050,NA,100,"psycho",21,0,21,"C:/Users/etp-cp-ping/Desktop/LABSSRV-EXP/subject-3.csv","psycho",1,22,22,"Lentiform Loewenfeld","3.3.8","['vert', 'hori', 'vert', 'hori', 'hori', 'hori', 'vert', 'vert']","yes",109,"circles","yes",0,NA,2,"legacy",NA,1024,2,48000,-16,"experiment",3,"odd","red","no",6,"circle",399282.4091,399336.9108,399336.952,NA,401250.3864,NA,NA,95125.9435999996,3293.27339999963,NA,95125.9656999996,467676.2798,470371.474,NA,NA,NA,NA,3293.35319999973,401963.7622,NA,NA,467676.2941,402489.6346,467676.229799999,"New experiment",19,"[0]","dist_present",56,73,"yes","yes",1680,NA,NA,NA,NA,"NR","NR","lp",NA,NA,NA,NA,NA,NA,"practice",3,"NR","in"
"23",1177.44640000002,25914.2109999978,25914.2109999978,15,15,"n",7,"['2', '2', '4', 'space']","y","#000000","no",448303.949499999,1,"neutral","psycho","psycho","psycho",0,"uniform",1,0,0,0,NA,0,0,NA,0,0,0,0,22,22,NA,NA,NA,NA,0,0,0,NA,22,0,22,73.2296414732588,"Thu Oct 21 11:41:44 2021","The main experiment item","yes","red","no","0","circle",NA,"pinging_target_expectations 4.0.osexp","C:\Users\etp-cp-ping\Desktop\LABSSRV-EXP",75,"no","mono","no",18,"no","white","no","yes",1050,NA,100,"psycho",22,0,22,"C:/Users/etp-cp-ping/Desktop/LABSSRV-EXP/subject-3.csv","psycho",1,23,23,"Lentiform Loewenfeld","3.3.8","['hori', 'hori', 'vert', 'vert', 'hori', 'hori', 'vert', 'vert']","yes",109,"diamond","yes",0,NA,2,"legacy",NA,1024,2,48000,-16,"experiment",3,"odd","green","no",1,"diamond",399282.4091,399336.9108,399336.952,NA,401250.3864,NA,NA,95125.9435999996,3293.27339999963,NA,95125.9656999996,470436.8253,473491.5532,NA,NA,NA,NA,3293.35319999973,401963.7622,NA,NA,470436.8393,402489.6346,470436.7764,"New experiment",19,"[0]","dist_present",56,21,"yes","yes",1680,NA,NA,NA,NA,"NR","NR","lp",NA,"Left",NA,NA,NA,NA,"practice",6,"NR","in"
"24",2000.9925000004,27915.2034999982,27915.2034999982,15,15,"n",7,"['2', '2', '4', 'space']","y","#000000","no",448303.949499999,1,"neutral","psycho","psycho","psycho",0,"uniform",0,0,0,0,NA,0,0,NA,0,0,0,0,23,23,NA,NA,NA,NA,0,0,0,NA,23,0,23,73.2296414732588,"Thu Oct 21 11:41:44 2021","The main experiment item","yes","green","no","1","circle",NA,"pinging_target_expectations 4.0.osexp","C:\Users\etp-cp-ping\Desktop\LABSSRV-EXP",75,"no","mono","no",18,"no","white","no","yes",1050,NA,100,"psycho",23,0,23,"C:/Users/etp-cp-ping/Desktop/LABSSRV-EXP/subject-3.csv","psycho",1,24,24,"Lentiform Loewenfeld","3.3.8","['vert', 'vert', 'hori', 'vert', 'hori', 'hori', 'vert', 'hori']","no",209,"None","yes",0,NA,2,"legacy",NA,1024,2,48000,-16,"experiment",3,"odd","red","no",0,"diamond",399282.4091,399336.9108,399336.952,NA,401250.3864,NA,NA,95125.9435999996,3293.27339999963,NA,95125.9656999996,473567.0253,477380.0106,NA,NA,NA,NA,3293.35319999973,401963.7622,NA,NA,473567.0393,402489.6346,473566.975,"New experiment",19,"[0]","dist_present",56,12,"yes","yes",1680,NA,NA,NA,NA,"NR","NR","lp","Left",NA,NA,NA,NA,NA,"practice",1,"NR","in"
"25",860.120100000117,28775.3235999983,28775.3235999983,15,15,"n",7,"['2', '2', '4', 'space']","y","#000000","no",448303.949499999,1,"neutral","psycho","psycho","psycho",0,"uniform",0,0,0,0,NA,0,0,NA,0,0,0,0,24,24,NA,NA,NA,NA,0,0,0,NA,24,0,24,73.2296414732588,"Thu Oct 21 11:41:44 2021","The main experiment item","yes","red","no","None","circle",NA,"pinging_target_expectations 4.0.osexp","C:\Users\etp-cp-ping\Desktop\LABSSRV-EXP",75,"no","mono","no",18,"no","white","no","yes",1050,NA,100,"psycho",24,0,24,"C:/Users/etp-cp-ping/Desktop/LABSSRV-EXP/subject-3.csv","psycho",1,25,25,"Lentiform Loewenfeld","3.3.8","['hori', 'vert', 'vert', 'hori', 'vert', 'vert', 'hori', 'hori']","no",209,"None","yes",0,NA,2,"legacy",NA,1024,2,48000,-16,"experiment",3,"odd","green","no",1,"diamond",399282.4091,399336.9108,399336.952,NA,401250.3864,NA,NA,95125.9435999996,3293.27339999963,NA,95125.9656999996,477467.993,480195.4901,NA,NA,NA,NA,3293.35319999973,401963.7622,NA,NA,477468.007,402489.6346,477467.9426,"New experiment",19,"[0]","dist_absent",56,29,"yes","yes",1680,NA,NA,NA,NA,"NR","NR","lp",NA,"Left",NA,NA,NA,NA,"practice",0,"NR","in"
"26",916.148300000699,29691.471899999,29691.471899999,15,15,"n",7,"['2', '2', '4', 'space']","y","#000000","no",448303.949499999,1,"neutral","psycho","psycho","psycho",0,"uniform",0,0,0,0,NA,0,0,NA,0,0,0,0,25,25,NA,NA,NA,NA,0,0,0,NA,25,0,25,73.2296414732588,"Thu Oct 21 11:41:44 2021","The main experiment item","yes","red","no","2","circle",NA,"pinging_target_expectations 4.0.osexp","C:\Users\etp-cp-ping\Desktop\LABSSRV-EXP",75,"no","mono","no",18,"no","white","no","yes",1050,NA,100,"psycho",25,0,25,"C:/Users/etp-cp-ping/Desktop/LABSSRV-EXP/subject-3.csv","psycho",1,26,26,"Lentiform Loewenfeld","3.3.8","['vert', 'vert', 'hori', 'hori', 'hori', 'hori', 'vert', 'vert']","yes",109,"diamond","yes",0,NA,2,"legacy",NA,1024,2,48000,-16,"experiment",3,"odd","green","no",3,"diamond",399282.4091,399336.9108,399336.952,NA,401250.3864,NA,NA,95125.9435999996,3293.27339999963,NA,95125.9656999996,480264.8494,483187.5499,NA,NA,NA,NA,3293.35319999973,401963.7622,NA,NA,480264.8634,402489.6346,480264.7992,"New experiment",19,"[0]","dist_present",56,43,"yes","yes",1680,NA,NA,NA,NA,"NR","NR","lp",NA,NA,NA,NA,NA,NA,"practice",1,"NR","in"
"27",1121.14329999988,30812.6151999989,30812.6151999989,16,16,"n",7,"['2', '2', '4', 'space']","y","#000000","no",448303.949499999,1,"neutral","psycho","psycho","psycho",0,"uniform",1,0,0,0,NA,0,0,NA,0,0,0,0,26,26,NA,NA,NA,NA,0,0,0,NA,26,0,26,73.2296414732588,"Thu Oct 21 11:41:44 2021","The main experiment item","yes","green","no","None","diamond",NA,"pinging_target_expectations 4.0.osexp","C:\Users\etp-cp-ping\Desktop\LABSSRV-EXP",75,"no","mono","no",18,"no","white","no","yes",1050,NA,100,"psycho",26,0,26,"C:/Users/etp-cp-ping/Desktop/LABSSRV-EXP/subject-3.csv","psycho",1,27,27,"Lentiform Loewenfeld","3.3.8","['vert', 'hori', 'hori', 'vert', 'hori', 'vert', 'vert', 'hori']","no",209,"None","yes",0,NA,2,"legacy",NA,1024,2,48000,-16,"experiment",3,"odd","red","no",3,"circle",399282.4091,399336.9108,399336.952,NA,401250.3864,NA,NA,95125.9435999996,3293.27339999963,NA,95125.9656999996,483250.0265,486307.5807,NA,NA,NA,NA,3293.35319999973,401963.7622,NA,NA,483250.0406,402489.6346,483249.976,"New experiment",19,"[0]","dist_absent",56,49,"yes","yes",1680,NA,NA,NA,NA,"R","NR","lp",NA,"Left",NA,NA,NA,NA,"practice",3,"NR","in"
"28",1011.56840000022,31824.1835999991,31824.1835999991,17,17,"n",7,"['2', '2', '4', 'space']","y","#000000","no",448303.949499999,1,"neutral","psycho","psycho","psycho",0,"uniform",1,0,0,0,NA,0,0,NA,0,0,0,0,27,27,NA,NA,NA,NA,0,0,0,NA,27,0,27,73.2296414732588,"Thu Oct 21 11:41:44 2021","The main experiment item","yes","red","no","1","circle",NA,"pinging_target_expectations 4.0.osexp","C:\Users\etp-cp-ping\Desktop\LABSSRV-EXP",75,"no","mono","no",18,"no","white","no","yes",1050,NA,100,"psycho",27,0,27,"C:/Users/etp-cp-ping/Desktop/LABSSRV-EXP/subject-3.csv","psycho",1,28,28,"Lentiform Loewenfeld","3.3.8","['vert', 'hori', 'vert', 'hori', 'vert', 'hori', 'vert', 'hori']","no",209,"None","yes",0,NA,2,"legacy",NA,1024,2,48000,-16,"experiment",3,"odd","green","no",6,"diamond",399282.4091,399336.9108,399336.952,NA,401250.3864,NA,NA,95125.9435999996,3293.27339999963,NA,95125.9656999996,486379.8319,489363.5175,NA,NA,NA,NA,3293.35319999973,401963.7622,NA,NA,486379.8462,402489.6346,486379.781099999,"New experiment",19,"[0]","dist_present",56,72,"yes","yes",1680,NA,NA,NA,NA,"NR","NR","lp",NA,NA,NA,NA,NA,NA,"practice",3,"R","in"
"29",779.064899999881,32603.248499999,32603.248499999,18,18,"n",7,"['2', '2', '4', 'space']","y","#000000","no",490319.822599999,1,"neutral","psycho","psycho","psycho",0,"uniform",1,0,0,0,NA,0,0,NA,0,0,0,0,28,28,NA,NA,NA,NA,0,0,0,NA,28,0,28,73.2296414732588,"Thu Oct 21 11:41:44 2021","The main experiment item","yes","red","no","None","diamond",NA,"pinging_target_expectations 4.0.osexp","C:\Users\etp-cp-ping\Desktop\LABSSRV-EXP",75,"no","mono","no",18,"no","white","no","yes",1050,NA,100,"psycho",28,0,28,"C:/Users/etp-cp-ping/Desktop/LABSSRV-EXP/subject-3.csv","psycho",2,29,29,"Lentiform Loewenfeld","3.3.8","['hori', 'vert', 'hori', 'vert', 'vert', 'vert', 'hori', 'hori']","yes",109,"diamond","yes",0,NA,2,"legacy",NA,1024,2,48000,-16,"experiment",3,"odd","green","no",7,"circle",399282.4091,399336.9108,399336.952,NA,401250.3864,NA,NA,95125.9435999996,3293.27339999963,NA,95125.9656999996,489431.2291,492003.4765,NA,NA,NA,NA,3293.35319999973,401963.7622,NA,NA,489431.2429,402489.6346,489431.173399999,"New experiment",19,"[0, 76.94055782535833, 86.03489551961493, 99.30355541552784, 107.00342643599441, 112.51399522323653, 125.23679226067227, 138.52605003423196, 149.54866419954337, 158.79453926594687, 172.17738549297366, 189.13714616276332, 204.29451779232843, 213.3444956707534, 225.43568927745224, 231.37785108593536, 256.50547492596127, 260.8742752838676, 282.7173203356554, 296.5764868194717, 305.4077459106222, 324.9098250200074, 339.5209199597762, 358.21391098810193, 376.7792535533291, 390.925173329345, 411.20596636291907, 425.56091442326533, 446.4448325501627, 468.0124915778958, 481.4894252027053, 507.1954825503989, 521.5494558968398, 534.7559311804032, 564.37826483474, 585.430610747337, 613.7008778951662, 622.1273985286293, 650.1537090775139, 662.9852775768796, 699.7438026385497, 702.2458595713879, 740.5325528437569, 751.632493592984, 750.5711269518501, 776.7290439920245, 796.1820725217195, 816.087870866903, 847.3783649923049, 854.0738931703273, 873.6437737016382, 879.930518364057, 888.5281468757925, 893.9083718074813]","dist_absent",56,89,"yes","no",1680,NA,NA,NA,NA,"NR","NR","lp",NA,"Right",NA,NA,NA,NA,"practice",6,"NR","in"
"30",1147.80149999936,33751.0499999984,33751.0499999984,19,19,"n",7,"['2', '2', '4', 'space']","y","#000000","no",490319.822599999,1,"neutral","psycho","psycho","psycho",0,"uniform",1,0,0,0,NA,0,0,NA,0,0,0,0,29,29,NA,NA,NA,NA,0,0,0,NA,29,0,29,73.2296414732588,"Thu Oct 21 11:41:44 2021","The main experiment item","yes","green","no","4","diamond",NA,"pinging_target_expectations 4.0.osexp","C:\Users\etp-cp-ping\Desktop\LABSSRV-EXP",75,"no","mono","no",18,"no","white","no","yes",1050,NA,100,"psycho",29,0,29,"C:/Users/etp-cp-ping/Desktop/LABSSRV-EXP/subject-3.csv","psycho",2,30,30,"Lentiform Loewenfeld","3.3.8","['vert', 'hori', 'hori', 'vert', 'vert', 'hori', 'vert', 'hori']","no",209,"None","yes",0,NA,2,"legacy",NA,1024,2,48000,-16,"experiment",3,"odd","red","no",1,"circle",399282.4091,399336.9108,399336.952,NA,401250.3864,NA,NA,95125.9435999996,3293.27339999963,NA,95125.9656999996,492072.7038,494947.572,NA,NA,NA,NA,3293.35319999973,401963.7622,NA,NA,492072.717999999,402489.6346,492072.654,"New experiment",19,"[0]","dist_present",56,25,"yes","yes",1680,NA,NA,NA,NA,"NR","NR","lp",NA,"Left",NA,NA,NA,NA,"practice",7,"NR","in"
"31",712.568700000644,34463.618699999,34463.618699999,20,20,"n",7,"['2', '2', '4', 'space']","y","#000000","no",490319.822599999,1,"neutral","psycho","psycho","psycho",0,"uniform",1,0,0,0,NA,0,0,NA,0,0,0,0,30,30,NA,NA,NA,NA,0,0,0,NA,30,0,30,73.2296414732588,"Thu Oct 21 11:41:44 2021","The main experiment item","yes","red","no","2","diamond",NA,"pinging_target_expectations 4.0.osexp","C:\Users\etp-cp-ping\Desktop\LABSSRV-EXP",75,"no","mono","no",18,"no","white","no","yes",1050,NA,100,"psycho",30,0,30,"C:/Users/etp-cp-ping/Desktop/LABSSRV-EXP/subject-3.csv","psycho",2,31,31,"Lentiform Loewenfeld","3.3.8","['vert', 'hori', 'vert', 'vert', 'hori', 'hori', 'hori', 'vert']","no",209,"None","yes",0,NA,2,"legacy",NA,1024,2,48000,-16,"experiment",3,"odd","green","no",1,"circle",399282.4091,399336.9108,399336.952,NA,401250.3864,NA,NA,95125.9435999996,3293.27339999963,NA,95125.9656999996,495013.5135,497731.5354,NA,NA,NA,NA,3293.35319999973,401963.7622,NA,NA,495013.5276,402489.6346,495013.4628,"New experiment",19,"[0]","dist_present",56,23,"yes","yes",1680,NA,NA,NA,NA,"R","NR","lp",NA,NA,NA,NA,NA,NA,"practice",1,"NR","in"
"32",935.085999999486,35398.7046999985,35398.7046999985,21,21,"n",7,"['2', '2', '4', 'space']","y","#000000","no",490319.822599999,1,"neutral","psycho","psycho","psycho",0,"uniform",1,0,0,0,NA,0,0,NA,0,0,0,0,31,31,NA,NA,NA,NA,0,0,0,NA,31,0,31,73.2296414732588,"Thu Oct 21 11:41:44 2021","The main experiment item","yes","red","no","0","diamond",NA,"pinging_target_expectations 4.0.osexp","C:\Users\etp-cp-ping\Desktop\LABSSRV-EXP",75,"no","mono","no",18,"no","white","no","yes",1050,NA,100,"psycho",31,0,31,"C:/Users/etp-cp-ping/Desktop/LABSSRV-EXP/subject-3.csv","psycho",2,32,32,"Lentiform Loewenfeld","3.3.8","['vert', 'hori', 'vert', 'vert', 'hori', 'hori', 'hori', 'vert']","no",209,"None","yes",0,NA,2,"legacy",NA,1024,2,48000,-16,"experiment",3,"odd","green","no",4,"circle",399282.4091,399336.9108,399336.952,NA,401250.3864,NA,NA,95125.9435999996,3293.27339999963,NA,95125.9656999996,497796.2133,500483.4677,NA,NA,NA,NA,3293.35319999973,401963.7622,NA,NA,497796.228,402489.6346,497796.1641,"New experiment",19,"[0]","dist_present",56,51,"yes","yes",1680,NA,NA,NA,NA,"NR","NR","lp",NA,NA,NA,NA,NA,NA,"practice",1,"R","in"
"33",751.843400000362,36150.5480999989,36150.5480999989,22,22,"n",7,"['2', '2', '4', 'space']","y","#000000","no",490319.822599999,1,"neutral","psycho","psycho","psycho",0,"uniform",1,0,0,0,NA,0,0,NA,0,0,0,0,32,32,NA,NA,NA,NA,0,0,0,NA,32,0,32,73.2296414732588,"Thu Oct 21 11:41:44 2021","The main experiment item","yes","green","no","4","diamond",NA,"pinging_target_expectations 4.0.osexp","C:\Users\etp-cp-ping\Desktop\LABSSRV-EXP",75,"no","mono","no",18,"no","white","no","yes",1050,NA,100,"psycho",32,0,32,"C:/Users/etp-cp-ping/Desktop/LABSSRV-EXP/subject-3.csv","psycho",2,33,33,"Lentiform Loewenfeld","3.3.8","['hori', 'vert', 'vert', 'hori', 'hori', 'hori', 'vert', 'vert']","yes",109,"circles","yes",0,NA,2,"legacy",NA,1024,2,48000,-16,"experiment",3,"odd","red","no",1,"circle",399282.4091,399336.9108,399336.952,NA,401250.3864,NA,NA,95125.9435999996,3293.27339999963,NA,95125.9656999996,500551.1932,503283.561,NA,NA,NA,NA,3293.35319999973,401963.7622,NA,NA,500551.2075,402489.6346,500551.143799999,"New experiment",19,"[0]","dist_present",56,25,"yes","yes",1680,NA,NA,NA,NA,"NR","NR","lp",NA,"Left",NA,NA,NA,NA,"practice",4,"NR","in"
"34",1129.32700000051,37279.8750999994,37279.8750999994,23,23,"n",7,"['2', '2', '4', 'space']","y","#000000","no",490319.822599999,1,"neutral","psycho","psycho","psycho",0,"uniform",1,0,0,0,NA,0,0,NA,0,0,0,0,33,33,NA,NA,NA,NA,0,0,0,NA,33,0,33,73.2296414732588,"Thu Oct 21 11:41:44 2021","The main experiment item","yes","red","no","None","circle",NA,"pinging_target_expectations 4.0.osexp","C:\Users\etp-cp-ping\Desktop\LABSSRV-EXP",75,"no","mono","no",18,"no","white","no","yes",1050,NA,100,"psycho",33,0,33,"C:/Users/etp-cp-ping/Desktop/LABSSRV-EXP/subject-3.csv","psycho",2,34,34,"Lentiform Loewenfeld","3.3.8","['vert', 'hori', 'vert', 'vert', 'hori', 'hori', 'vert', 'hori']","no",209,"None","yes",0,NA,2,"legacy",NA,1024,2,48000,-16,"experiment",3,"odd","green","no",6,"diamond",399282.4091,399336.9108,399336.952,NA,401250.3864,NA,NA,95125.9435999996,3293.27339999963,NA,95125.9656999996,503352.860999999,506419.527399999,NA,NA,NA,NA,3293.35319999973,401963.7622,NA,NA,503352.8753,402489.6346,503352.8111,"New experiment",19,"[0]","dist_absent",56,79,"yes","yes",1680,NA,NA,NA,NA,"NR","NR","lp",NA,"Right",NA,"Right",NA,NA,"practice",1,"NR","in"
"35",810.944900000351,38090.8199999997,38090.8199999997,24,24,"n",7,"['2', '2', '4', 'space']","y","#000000","no",490319.822599999,1,"neutral","psycho","psycho","psycho",0,"uniform",1,0,0,0,NA,0,0,NA,0,0,0,0,34,34,NA,NA,NA,NA,0,0,0,NA,34,0,34,73.2296414732588,"Thu Oct 21 11:41:44 2021","The main experiment item","yes","red","no","None","circle",NA,"pinging_target_expectations 4.0.osexp","C:\Users\etp-cp-ping\Desktop\LABSSRV-EXP",75,"no","mono","no",18,"no","white","no","yes",1050,NA,100,"psycho",34,0,34,"C:/Users/etp-cp-ping/Desktop/LABSSRV-EXP/subject-3.csv","psycho",2,35,35,"Lentiform Loewenfeld","3.3.8","['hori', 'hori', 'hori', 'vert', 'hori', 'vert', 'vert', 'vert']","yes",109,"diamond","yes",0,NA,2,"legacy",NA,1024,2,48000,-16,"experiment",3,"odd","green","no",6,"diamond",399282.4091,399336.9108,399336.952,NA,401250.3864,NA,NA,95125.9435999996,3293.27339999963,NA,95125.9656999996,506484.9101,509123.494699999,NA,NA,NA,NA,3293.35319999973,401963.7622,NA,NA,506484.9243,402489.6346,506484.8591,"New experiment",19,"[0]","dist_absent",56,79,"yes","yes",1680,NA,NA,NA,NA,"R","R","lp",NA,"Right",NA,"Right",NA,NA,"practice",6,"NR","in"
"36",1169.70390000008,39260.5238999998,39260.5238999998,25,25,"n",7,"['2', '2', '4', 'space']","y","#000000","no",490319.822599999,1,"neutral","psycho","psycho","psycho",0,"uniform",1,0,0,0,NA,0,0,NA,0,0,0,0,35,35,NA,NA,NA,NA,0,0,0,NA,35,0,35,73.2296414732588,"Thu Oct 21 11:41:44 2021","The main experiment item","yes","green","no","0","circle",NA,"pinging_target_expectations 4.0.osexp","C:\Users\etp-cp-ping\Desktop\LABSSRV-EXP",75,"no","mono","no",18,"no","white","no","yes",1050,NA,100,"psycho",35,0,35,"C:/Users/etp-cp-ping/Desktop/LABSSRV-EXP/subject-3.csv","psycho",2,36,36,"Lentiform Loewenfeld","3.3.8","['hori', 'hori', 'vert', 'vert', 'hori', 'vert', 'vert', 'hori']","no",209,"None","yes",0,NA,2,"legacy",NA,1024,2,48000,-16,"experiment",3,"odd","red","no",4,"diamond",399282.4091,399336.9108,399336.952,NA,401250.3864,NA,NA,95125.9435999996,3293.27339999963,NA,95125.9656999996,509192.5426,512147.5086,NA,NA,NA,NA,3293.35319999973,401963.7622,NA,NA,509192.5567,402489.6346,509192.4927,"New experiment",19,"[0]","dist_present",56,51,"yes","yes",1680,NA,NA,NA,NA,"NR","NR","lp",NA,NA,NA,NA,NA,NA,"practice",6,"R","in"
"37",888.92039999977,40149.4442999996,40149.4442999996,26,26,"n",7,"['2', '2', '4', 'space']","y","#000000","no",490319.822599999,1,"neutral","psycho","psycho","psycho",0,"uniform",1,0,0,0,NA,0,0,NA,0,0,0,0,36,36,NA,NA,NA,NA,0,0,0,NA,36,0,36,73.2296414732588,"Thu Oct 21 11:41:44 2021","The main experiment item","yes","red","no","6","circle",NA,"pinging_target_expectations 4.0.osexp","C:\Users\etp-cp-ping\Desktop\LABSSRV-EXP",75,"no","mono","no",18,"no","white","no","yes",1050,NA,100,"psycho",36,0,36,"C:/Users/etp-cp-ping/Desktop/LABSSRV-EXP/subject-3.csv","psycho",2,37,37,"Lentiform Loewenfeld","3.3.8","['vert', 'hori', 'vert', 'vert', 'hori', 'hori', 'vert', 'hori']","yes",109,"circles","yes",0,NA,2,"legacy",NA,1024,2,48000,-16,"experiment",3,"odd","green","no",3,"diamond",399282.4091,399336.9108,399336.952,NA,401250.3864,NA,NA,95125.9435999996,3293.27339999963,NA,95125.9656999996,512217.0371,515091.4465,NA,NA,NA,NA,3293.35319999973,401963.7622,NA,NA,512217.051699999,402489.6346,512216.9881,"New experiment",19,"[0]","dist_present",56,47,"yes","yes",1680,NA,NA,NA,NA,"NR","NR","lp",NA,NA,NA,NA,NA,NA,"practice",4,"NR","in"
"38",2000.46959999966,42149.9138999992,42149.9138999992,26,26,"n",7,"['2', '2', '4', 'space']","y","#000000","no",490319.822599999,1,"neutral","psycho","psycho","psycho",0,"uniform",0,0,0,0,NA,0,0,NA,0,0,0,0,37,37,NA,NA,NA,NA,0,0,0,NA,37,0,37,73.2296414732588,"Thu Oct 21 11:41:44 2021","The main experiment item","yes","red","no","None","diamond",NA,"pinging_target_expectations 4.0.osexp","C:\Users\etp-cp-ping\Desktop\LABSSRV-EXP",75,"no","mono","no",18,"no","white","no","yes",1050,NA,100,"psycho",37,0,37,"C:/Users/etp-cp-ping/Desktop/LABSSRV-EXP/subject-3.csv","psycho",2,38,38,"Lentiform Loewenfeld","3.3.8","['vert', 'hori', 'hori', 'hori', 'vert', 'hori', 'vert', 'vert']","yes",109,"circles","yes",0,NA,2,"legacy",NA,1024,2,48000,-16,"experiment",3,"odd","green","no",0,"circle",399282.4091,399336.9108,399336.952,NA,401250.3864,NA,NA,95125.9435999996,3293.27339999963,NA,95125.9656999996,515157.923799999,519012.0915,NA,NA,NA,NA,3293.35319999973,401963.7622,NA,NA,515157.9382,402489.6346,515157.8737,"New experiment",19,"[0]","dist_absent",56,19,"yes","yes",1680,NA,NA,NA,NA,"NR","NR","lp",NA,NA,NA,NA,NA,NA,"practice",3,"NR","in"
"39",1103.32740000013,43253.2412999994,43253.2412999994,26,26,"n",7,"['2', '2', '4', 'space']","y","#000000","no",490319.822599999,1,"neutral","psycho","psycho","psycho",0,"uniform",0,0,0,0,NA,0,0,NA,0,0,0,0,38,38,NA,NA,NA,NA,0,0,0,NA,38,0,38,73.2296414732588,"Thu Oct 21 11:41:44 2021","The main experiment item","yes","red","no","7","diamond",NA,"pinging_target_expectations 4.0.osexp","C:\Users\etp-cp-ping\Desktop\LABSSRV-EXP",75,"no","mono","no",18,"no","white","no","yes",1050,NA,100,"psycho",38,0,38,"C:/Users/etp-cp-ping/Desktop/LABSSRV-EXP/subject-3.csv","psycho",2,39,39,"Lentiform Loewenfeld","3.3.8","['vert', 'vert', 'hori', 'vert', 'hori', 'hori', 'hori', 'vert']","no",209,"None","yes",0,NA,2,"legacy",NA,1024,2,48000,-16,"experiment",3,"odd","green","no",0,"circle",399282.4091,399336.9108,399336.952,NA,401250.3864,NA,NA,95125.9435999996,3293.27339999963,NA,95125.9656999996,519081.5214,522035.4662,NA,NA,NA,NA,3293.35319999973,401963.7622,NA,NA,519081.5358,402489.6346,519081.4721,"New experiment",19,"[0]","dist_present",56,18,"yes","yes",1680,NA,NA,NA,NA,"R","NR","lp","Right",NA,NA,NA,NA,NA,"practice",0,"NR","in"
"40",1972.54700000031,45225.7882999997,45225.7882999997,27,27,"n",7,"['2', '2', '4', 'space']","y","#000000","no",490319.822599999,1,"neutral","psycho","psycho","psycho",0,"uniform",1,0,0,0,NA,0,0,NA,0,0,0,0,39,39,NA,NA,NA,NA,0,0,0,NA,39,0,39,73.2296414732588,"Thu Oct 21 11:41:44 2021","The main experiment item","yes","green","no","4","diamond",NA,"pinging_target_expectations 4.0.osexp","C:\Users\etp-cp-ping\Desktop\LABSSRV-EXP",75,"no","mono","no",18,"no","white","no","yes",1050,NA,100,"psycho",39,0,39,"C:/Users/etp-cp-ping/Desktop/LABSSRV-EXP/subject-3.csv","psycho",2,40,40,"Lentiform Loewenfeld","3.3.8","['hori', 'vert', 'vert', 'hori', 'vert', 'vert', 'hori', 'hori']","yes",109,"circles","yes",0,NA,2,"legacy",NA,1024,2,48000,-16,"experiment",3,"odd","red","no",2,"circle",399282.4091,399336.9108,399336.952,NA,401250.3864,NA,NA,95125.9435999996,3293.27339999963,NA,95125.9656999996,522094.862899999,525891.5407,NA,NA,NA,NA,3293.35319999973,401963.7622,NA,NA,522094.8773,402489.6346,522094.8131,"New experiment",19,"[0]","dist_present",56,35,"yes","yes",1680,NA,NA,NA,NA,"NR","NR","lp",NA,"Left",NA,"Left",NA,NA,"practice",0,"R","in"
"41",845.283999999985,46071.0722999997,46071.0722999997,28,28,"n",7,"['2', '2', '4', 'space']","y","#000000","no",490319.822599999,1,"neutral","psycho","psycho","psycho",0,"uniform",1,0,0,0,NA,0,0,NA,0,0,0,0,40,40,NA,NA,NA,NA,0,0,0,NA,40,0,40,73.2296414732588,"Thu Oct 21 11:41:44 2021","The main experiment item","yes","green","no","3","circle",NA,"pinging_target_expectations 4.0.osexp","C:\Users\etp-cp-ping\Desktop\LABSSRV-EXP",75,"no","mono","no",18,"no","white","no","yes",1050,NA,100,"psycho",40,0,40,"C:/Users/etp-cp-ping/Desktop/LABSSRV-EXP/subject-3.csv","psycho",2,41,41,"Lentiform Loewenfeld","3.3.8","['vert', 'vert', 'hori', 'hori', 'vert', 'hori', 'vert', 'hori']","no",209,"None","yes",0,NA,2,"legacy",NA,1024,2,48000,-16,"experiment",3,"odd","red","no",2,"diamond",399282.4091,399336.9108,399336.952,NA,401250.3864,NA,NA,95125.9435999996,3293.27339999963,NA,95125.9656999996,525960.456299999,528659.5839,NA,NA,NA,NA,3293.35319999973,401963.7622,NA,NA,525960.4707,402489.6346,525960.4066,"New experiment",19,"[0]","dist_present",56,34,"yes","yes",1680,NA,NA,NA,NA,"R","NR","lp",NA,NA,NA,NA,NA,NA,"practice",2,"NR","in"
"42",663.953599999426,46735.0258999991,46735.0258999991,29,29,"n",7,"['2', '2', '4', 'space']","y","#000000","no",490319.822599999,1,"neutral","psycho","psycho","psycho",0,"uniform",1,0,0,0,NA,0,0,NA,0,0,0,0,41,41,NA,NA,NA,NA,0,0,0,NA,41,0,41,73.2296414732588,"Thu Oct 21 11:41:44 2021","The main experiment item","yes","red","no","None","circle",NA,"pinging_target_expectations 4.0.osexp","C:\Users\etp-cp-ping\Desktop\LABSSRV-EXP",75,"no","mono","no",18,"no","white","no","yes",1050,NA,100,"psycho",41,0,41,"C:/Users/etp-cp-ping/Desktop/LABSSRV-EXP/subject-3.csv","psycho",2,42,42,"Lentiform Loewenfeld","3.3.8","['vert', 'vert', 'hori', 'hori', 'hori', 'vert', 'vert', 'hori']","no",209,"None","yes",0,NA,2,"legacy",NA,1024,2,48000,-16,"experiment",3,"odd","green","no",4,"diamond",399282.4091,399336.9108,399336.952,NA,401250.3864,NA,NA,95125.9435999996,3293.27339999963,NA,95125.9656999996,528729.0937,531347.505799999,NA,NA,NA,NA,3293.35319999973,401963.7622,NA,NA,528729.1079,402489.6346,528729.0443,"New experiment",19,"[0]","dist_absent",56,59,"yes","yes",1680,NA,NA,NA,NA,"NR","NR","lp",NA,NA,NA,NA,NA,NA,"practice",2,"R","in"
"43",1681.5437000005,48416.5695999996,48416.5695999996,30,30,"n",7,"['2', '2', '4', 'space']","y","#000000","no",490319.822599999,1,"neutral","psycho","psycho","psycho",0,"uniform",1,0,0,0,NA,0,0,NA,0,0,0,0,42,42,NA,NA,NA,NA,0,0,0,NA,42,0,42,73.2296414732588,"Thu Oct 21 11:41:44 2021","The main experiment item","yes","red","no","3","diamond",NA,"pinging_target_expectations 4.0.osexp","C:\Users\etp-cp-ping\Desktop\LABSSRV-EXP",75,"no","mono","no",18,"no","white","no","yes",1050,NA,100,"psycho",42,0,42,"C:/Users/etp-cp-ping/Desktop/LABSSRV-EXP/subject-3.csv","psycho",2,43,43,"Lentiform Loewenfeld","3.3.8","['hori', 'vert', 'hori', 'vert', 'vert', 'vert', 'hori', 'hori']","no",209,"None","yes",0,NA,2,"legacy",NA,1024,2,48000,-16,"experiment",3,"odd","green","no",7,"circle",399282.4091,399336.9108,399336.952,NA,401250.3864,NA,NA,95125.9435999996,3293.27339999963,NA,95125.9656999996,531408.2361,535139.5451,NA,NA,NA,NA,3293.35319999973,401963.7622,NA,NA,531408.2504,402489.6346,531408.1853,"New experiment",19,"[0]","dist_present",56,84,"yes","yes",1680,NA,NA,NA,NA,"NR","NR","lp",NA,NA,NA,NA,NA,NA,"practice",4,"NR","in"
"44",967.36200000043,49383.9316,49383.9316,31,31,"n",7,"['2', '2', '4', 'space']","y","#000000","no",490319.822599999,1,"neutral","psycho","psycho","psycho",0,"uniform",1,0,0,0,NA,0,0,NA,0,0,0,0,43,43,NA,NA,NA,NA,0,0,0,NA,43,0,43,73.2296414732588,"Thu Oct 21 11:41:44 2021","The main experiment item","yes","red","no","5","circle",NA,"pinging_target_expectations 4.0.osexp","C:\Users\etp-cp-ping\Desktop\LABSSRV-EXP",75,"no","mono","no",18,"no","white","no","yes",1050,NA,100,"psycho",43,0,43,"C:/Users/etp-cp-ping/Desktop/LABSSRV-EXP/subject-3.csv","psycho",2,44,44,"Lentiform Loewenfeld","3.3.8","['hori', 'hori', 'vert', 'hori', 'vert', 'vert', 'vert', 'hori']","yes",109,"circles","yes",0,NA,2,"legacy",NA,1024,2,48000,-16,"experiment",3,"odd","green","no",4,"diamond",399282.4091,399336.9108,399336.952,NA,401250.3864,NA,NA,95125.9435999996,3293.27339999963,NA,95125.9656999996,535210.7797,538227.4671,NA,NA,NA,NA,3293.35319999973,401963.7622,NA,NA,535210.794099999,402489.6346,535210.7291,"New experiment",19,"[0]","dist_present",56,56,"yes","yes",1680,NA,NA,NA,NA,"NR","NR","lp","Right",NA,NA,NA,NA,NA,"practice",7,"NR","in"
"45",677.955699999933,50061.8872999999,50061.8872999999,32,32,"n",7,"['2', '2', '4', 'space']","y","#000000","no",490319.822599999,1,"neutral","psycho","psycho","psycho",0,"uniform",1,0,0,0,NA,0,0,NA,0,0,0,0,44,44,NA,NA,NA,NA,0,0,0,NA,44,0,44,73.2296414732588,"Thu Oct 21 11:41:44 2021","The main experiment item","yes","green","no","7","circle",NA,"pinging_target_expectations 4.0.osexp","C:\Users\etp-cp-ping\Desktop\LABSSRV-EXP",75,"no","mono","no",18,"no","white","no","yes",1050,NA,100,"psycho",44,0,44,"C:/Users/etp-cp-ping/Desktop/LABSSRV-EXP/subject-3.csv","psycho",2,45,45,"Lentiform Loewenfeld","3.3.8","['hori', 'hori', 'vert', 'hori', 'hori', 'vert', 'vert', 'vert']","yes",109,"diamond","yes",0,NA,2,"legacy",NA,1024,2,48000,-16,"experiment",3,"odd","red","no",5,"diamond",399282.4091,399336.9108,399336.952,NA,401250.3864,NA,NA,95125.9435999996,3293.27339999963,NA,95125.9656999996,538284.5794,541075.4116,NA,NA,NA,NA,3293.35319999973,401963.7622,NA,NA,538284.5937,402489.6346,538284.5296,"New experiment",19,"[0]","dist_present",56,68,"yes","yes",1680,NA,NA,NA,NA,"NR","NR","lp",NA,NA,NA,NA,NA,NA,"practice",4,"NR","in"
"46",833.253199999453,50895.1404999994,50895.1404999994,33,33,"n",7,"['2', '2', '4', 'space']","y","#000000","no",490319.822599999,1,"neutral","psycho","psycho","psycho",0,"uniform",1,0,0,0,NA,0,0,NA,0,0,0,0,45,45,NA,NA,NA,NA,0,0,0,NA,45,0,45,73.2296414732588,"Thu Oct 21 11:41:44 2021","The main experiment item","yes","green","no","4","circle",NA,"pinging_target_expectations 4.0.osexp","C:\Users\etp-cp-ping\Desktop\LABSSRV-EXP",75,"no","mono","no",18,"no","white","no","yes",1050,NA,100,"psycho",45,0,45,"C:/Users/etp-cp-ping/Desktop/LABSSRV-EXP/subject-3.csv","psycho",2,46,46,"Lentiform Loewenfeld","3.3.8","['vert', 'hori', 'hori', 'hori', 'hori', 'vert', 'vert', 'vert']","yes",109,"circles","yes",0,NA,2,"legacy",NA,1024,2,48000,-16,"experiment",3,"odd","red","no",3,"diamond",399282.4091,399336.9108,399336.952,NA,401250.3864,NA,NA,95125.9435999996,3293.27339999963,NA,95125.9656999996,541133.694999999,543827.4654,NA,NA,NA,NA,3293.35319999973,401963.7622,NA,NA,541133.7091,402489.6346,541133.645899999,"New experiment",19,"[0]","dist_present",56,45,"yes","yes",1680,NA,NA,NA,NA,"NR","NR","lp",NA,"Left",NA,NA,NA,NA,"practice",5,"NR","in"
"47",790.201999999234,51685.3424999986,51685.3424999986,34,34,"n",7,"['2', '2', '4', 'space']","y","#000000","no",490319.822599999,1,"neutral","psycho","psycho","psycho",0,"uniform",1,0,0,0,NA,0,0,NA,0,0,0,0,46,46,NA,NA,NA,NA,0,0,0,NA,46,0,46,73.2296414732588,"Thu Oct 21 11:41:44 2021","The main experiment item","yes","red","no","3","diamond",NA,"pinging_target_expectations 4.0.osexp","C:\Users\etp-cp-ping\Desktop\LABSSRV-EXP",75,"no","mono","no",18,"no","white","no","yes",1050,NA,100,"psycho",46,0,46,"C:/Users/etp-cp-ping/Desktop/LABSSRV-EXP/subject-3.csv","psycho",2,47,47,"Lentiform Loewenfeld","3.3.8","['hori', 'vert', 'vert', 'hori', 'vert', 'hori', 'vert', 'hori']","no",209,"None","yes",0,NA,2,"legacy",NA,1024,2,48000,-16,"experiment",3,"odd","green","no",2,"circle",399282.4091,399336.9108,399336.952,NA,401250.3864,NA,NA,95125.9435999996,3293.27339999963,NA,95125.9656999996,543896.727599999,546531.4333,NA,NA,NA,NA,3293.35319999973,401963.7622,NA,NA,543896.7418,402489.6346,543896.6755,"New experiment",19,"[0]","dist_present",56,34,"yes","yes",1680,NA,NA,NA,NA,"NR","NR","lp",NA,NA,NA,NA,NA,NA,"practice",3,"NR","in"
"48",1746.01100000017,53431.3534999988,53431.3534999988,35,35,"n",7,"['2', '2', '4', 'space']","y","#000000","no",490319.822599999,1,"neutral","psycho","psycho","psycho",0,"uniform",1,0,0,0,NA,0,0,NA,0,0,0,0,47,47,NA,NA,NA,NA,0,0,0,NA,47,0,47,73.2296414732588,"Thu Oct 21 11:41:44 2021","The main experiment item","yes","red","no","3","circle",NA,"pinging_target_expectations 4.0.osexp","C:\Users\etp-cp-ping\Desktop\LABSSRV-EXP",75,"no","mono","no",18,"no","white","no","yes",1050,NA,100,"psycho",47,0,47,"C:/Users/etp-cp-ping/Desktop/LABSSRV-EXP/subject-3.csv","psycho",2,48,48,"Lentiform Loewenfeld","3.3.8","['vert', 'hori', 'vert', 'vert', 'hori', 'hori', 'vert', 'hori']","no",209,"None","yes",0,NA,2,"legacy",NA,1024,2,48000,-16,"experiment",3,"odd","green","no",5,"diamond",399282.4091,399336.9108,399336.952,NA,401250.3864,NA,NA,95125.9435999996,3293.27339999963,NA,95125.9656999996,546590.7048,550211.5212,NA,NA,NA,NA,3293.35319999973,401963.7622,NA,NA,546590.718699999,402489.6346,546590.6553,"New experiment",19,"[0]","dist_present",56,64,"yes","yes",1680,NA,NA,NA,NA,"NR","R","lp",NA,NA,NA,NA,NA,NA,"practice",2,"NR","in"
"49",2000.00670000014,55431.3601999989,55431.3601999989,35,35,"n",7,"['2', '2', '4', 'space']","y","#000000","no",490319.822599999,1,"neutral","psycho","psycho","psycho",0,"uniform",0,0,0,0,NA,0,0,NA,0,0,0,0,48,48,NA,NA,NA,NA,0,0,0,NA,48,0,48,73.2296414732588,"Thu Oct 21 11:41:44 2021","The main experiment item","yes","green","no","7","diamond",NA,"pinging_target_expectations 4.0.osexp","C:\Users\etp-cp-ping\Desktop\LABSSRV-EXP",75,"no","mono","no",18,"no","white","no","yes",1050,NA,100,"psycho",48,0,48,"C:/Users/etp-cp-ping/Desktop/LABSSRV-EXP/subject-3.csv","psycho",2,49,49,"Lentiform Loewenfeld","3.3.8","['hori', 'vert', 'hori', 'vert', 'vert', 'hori', 'vert', 'hori']","no",209,"None","yes",0,NA,2,"legacy",NA,1024,2,48000,-16,"experiment",3,"odd","red","no",0,"circle",399282.4091,399336.9108,399336.952,NA,401250.3864,NA,NA,95125.9435999996,3293.27339999963,NA,95125.9656999996,550281.6659,554204.1179,NA,NA,NA,NA,3293.35319999973,401963.7622,NA,NA,550281.6805,402489.6346,550281.6154,"New experiment",19,"[0]","dist_present",56,18,"yes","yes",1680,NA,NA,NA,NA,"NR","NR","lp","Right",NA,NA,NA,NA,NA,"practice",5,"NR","in"
"50",2000.87019999954,57432.2303999985,57432.2303999985,35,35,"n",7,"['2', '2', '4', 'space']","y","#000000","no",490319.822599999,1,"neutral","psycho","psycho","psycho",0,"uniform",0,0,0,0,NA,0,0,NA,0,0,0,0,49,49,NA,NA,NA,NA,0,0,0,NA,49,0,49,73.2296414732588,"Thu Oct 21 11:41:44 2021","The main experiment item","yes","green","no","6","circle",NA,"pinging_target_expectations 4.0.osexp","C:\Users\etp-cp-ping\Desktop\LABSSRV-EXP",75,"no","mono","no",18,"no","white","no","yes",1050,NA,100,"psycho",49,0,49,"C:/Users/etp-cp-ping/Desktop/LABSSRV-EXP/subject-3.csv","psycho",2,50,50,"Lentiform Loewenfeld","3.3.8","['hori', 'vert', 'vert', 'hori', 'hori', 'vert', 'vert', 'hori']","yes",109,"circles","yes",0,NA,2,"legacy",NA,1024,2,48000,-16,"experiment",3,"odd","red","no",5,"diamond",399282.4091,399336.9108,399336.952,NA,401250.3864,NA,NA,95125.9435999996,3293.27339999963,NA,95125.9656999996,554277.1985,558228.5825,NA,NA,NA,NA,3293.35319999973,401963.7622,NA,NA,554277.2147,402489.6346,554277.0257,"New experiment",19,"[0]","dist_present",56,67,"yes","yes",1680,NA,NA,NA,NA,"NR","NR","lp",NA,NA,NA,NA,NA,NA,"practice",0,"NR","in"
"51",898.09719999996,58330.3275999984,58330.3275999984,36,36,"n",7,"['2', '2', '4', 'space']","y","#000000","no",490319.822599999,1,"neutral","psycho","psycho","psycho",0,"uniform",1,0,0,0,NA,0,0,NA,0,0,0,0,50,50,NA,NA,NA,NA,0,0,0,NA,50,0,50,73.2296414732588,"Thu Oct 21 11:41:44 2021","The main experiment item","yes","green","no","4","diamond",NA,"pinging_target_expectations 4.0.osexp","C:\Users\etp-cp-ping\Desktop\LABSSRV-EXP",75,"no","mono","no",18,"no","white","no","yes",1050,NA,100,"psycho",50,0,50,"C:/Users/etp-cp-ping/Desktop/LABSSRV-EXP/subject-3.csv","psycho",2,51,51,"Lentiform Loewenfeld","3.3.8","['hori', 'vert', 'vert', 'hori', 'vert', 'vert', 'hori', 'hori']","yes",109,"diamond","yes",0,NA,2,"legacy",NA,1024,2,48000,-16,"experiment",3,"odd","red","no",0,"circle",399282.4091,399336.9108,399336.952,NA,401250.3864,NA,NA,95125.9435999996,3293.27339999963,NA,95125.9656999996,558295.9241,561107.5242,NA,NA,NA,NA,3293.35319999973,401963.7622,NA,NA,558295.9382,402489.6346,558295.8745,"New experiment",19,"[0]","dist_present",56,15,"yes","yes",1680,NA,NA,NA,NA,"NR","NR","lp",NA,NA,NA,NA,NA,NA,"practice",5,"NR","in"
"52",1003.10970000003,59333.4372999985,59333.4372999985,37,37,"n",7,"['2', '2', '4', 'space']","y","#000000","no",490319.822599999,1,"neutral","psycho","psycho","psycho",0,"uniform",1,0,0,0,NA,0,0,NA,0,0,0,0,51,51,NA,NA,NA,NA,0,0,0,NA,51,0,51,73.2296414732588,"Thu Oct 21 11:41:44 2021","The main experiment item","yes","red","no","2","diamond",NA,"pinging_target_expectations 4.0.osexp","C:\Users\etp-cp-ping\Desktop\LABSSRV-EXP",75,"no","mono","no",18,"no","white","no","yes",1050,NA,100,"psycho",51,0,51,"C:/Users/etp-cp-ping/Desktop/LABSSRV-EXP/subject-3.csv","psycho",2,52,52,"Lentiform Loewenfeld","3.3.8","['hori', 'vert', 'hori', 'hori', 'hori', 'vert', 'vert', 'vert']","yes",109,"circles","yes",0,NA,2,"legacy",NA,1024,2,48000,-16,"experiment",3,"odd","green","no",7,"circle",399282.4091,399336.9108,399336.952,NA,401250.3864,NA,NA,95125.9435999996,3293.27339999963,NA,95125.9656999996,561170.121399999,564083.5324,NA,NA,NA,NA,3293.35319999973,401963.7622,NA,NA,561170.1358,402489.6346,561170.0727,"New experiment",19,"[0]","dist_present",56,83,"yes","yes",1680,NA,NA,NA,NA,"NR","NR","lp",NA,NA,NA,NA,NA,NA,"practice",0,"NR","in"
"53",1504.47950000037,60837.9167999988,60837.9167999988,38,38,"n",7,"['2', '2', '4', 'space']","y","#000000","no",490319.822599999,1,"neutral","psycho","psycho","psycho",0,"uniform",1,0,0,0,NA,0,0,NA,0,0,0,0,52,52,NA,NA,NA,NA,0,0,0,NA,52,0,52,73.2296414732588,"Thu Oct 21 11:41:44 2021","The main experiment item","yes","red","no","None","diamond",NA,"pinging_target_expectations 4.0.osexp","C:\Users\etp-cp-ping\Desktop\LABSSRV-EXP",75,"no","mono","no",18,"no","white","no","yes",1050,NA,100,"psycho",52,0,52,"C:/Users/etp-cp-ping/Desktop/LABSSRV-EXP/subject-3.csv","psycho",2,53,53,"Lentiform Loewenfeld","3.3.8","['vert', 'vert', 'vert', 'hori', 'hori', 'hori', 'vert', 'hori']","no",209,"None","yes",0,NA,2,"legacy",NA,1024,2,48000,-16,"experiment",3,"odd","green","no",7,"circle",399282.4091,399336.9108,399336.952,NA,401250.3864,NA,NA,95125.9435999996,3293.27339999963,NA,95125.9656999996,564149.2041,567731.4737,NA,NA,NA,NA,3293.35319999973,401963.7622,NA,NA,564149.2185,402489.6346,564149.1538,"New experiment",19,"[0]","dist_absent",56,89,"yes","yes",1680,NA,NA,NA,NA,"R","NR","lp",NA,"Right",NA,NA,NA,NA,"practice",7,"NR","in"
"54",762.454799999483,61600.3715999983,61600.3715999983,39,39,"n",7,"['2', '2', '4', 'space']","y","#000000","no",569181.3713,1,"neutral","psycho","psycho","psycho",0,"uniform",1,0,0,0,NA,0,0,NA,0,0,0,0,53,53,NA,NA,NA,NA,0,0,0,NA,53,0,53,73.2296414732588,"Thu Oct 21 11:41:44 2021","The main experiment item","yes","green","no","None","diamond",NA,"pinging_target_expectations 4.0.osexp","C:\Users\etp-cp-ping\Desktop\LABSSRV-EXP",75,"no","mono","no",18,"no","white","no","yes",1050,NA,100,"psycho",53,0,53,"C:/Users/etp-cp-ping/Desktop/LABSSRV-EXP/subject-3.csv","psycho",3,54,54,"Lentiform Loewenfeld","3.3.8","['vert', 'vert', 'hori', 'hori', 'vert', 'hori', 'vert', 'hori']","no",209,"None","yes",0,NA,2,"legacy",NA,1024,2,48000,-16,"experiment",3,"odd","red","no",4,"circle",399282.4091,399336.9108,399336.952,NA,401250.3864,NA,NA,95125.9435999996,3293.27339999963,NA,95125.9656999996,567793.234199999,570371.504799999,NA,NA,NA,NA,3293.35319999973,401963.7622,NA,NA,567793.2482,402489.6346,567793.186,"New experiment",19,"[0]","dist_absent",56,59,"yes","yes",1680,NA,NA,NA,NA,"NR","R","lp",NA,NA,NA,NA,NA,NA,"practice",7,"R","in"
"55",2000.97259999986,63601.3441999982,63601.3441999982,39,39,"n",7,"['2', '2', '4', 'space']","y","#000000","no",569181.3713,1,"neutral","psycho","psycho","psycho",0,"uniform",0,0,0,0,NA,0,0,NA,0,0,0,0,54,54,NA,NA,NA,NA,0,0,0,NA,54,0,54,73.2296414732588,"Thu Oct 21 11:41:44 2021","The main experiment item","yes","red","no","None","circle",NA,"pinging_target_expectations 4.0.osexp","C:\Users\etp-cp-ping\Desktop\LABSSRV-EXP",75,"no","mono","no",18,"no","white","no","yes",1050,NA,100,"psycho",54,0,54,"C:/Users/etp-cp-ping/Desktop/LABSSRV-EXP/subject-3.csv","psycho",3,55,55,"Lentiform Loewenfeld","3.3.8","['vert', 'hori', 'vert', 'vert', 'hori', 'hori', 'hori', 'vert']","yes",109,"circles","yes",0,NA,2,"legacy",NA,1024,2,48000,-16,"experiment",3,"odd","green","no",2,"diamond",399282.4091,399336.9108,399336.952,NA,401250.3864,NA,NA,95125.9435999996,3293.27339999963,NA,95125.9656999996,570434.3283,574377.069,NA,NA,NA,NA,3293.35319999973,401963.7622,NA,NA,570434.3429,402489.6346,570434.2795,"New experiment",19,"[0]","dist_absent",56,39,"yes","yes",1680,NA,NA,NA,NA,"NR","R","lp",NA,"Left",NA,"Left",NA,NA,"practice",4,"NR","in"
"56",871.187500000815,64472.531699999,64472.531699999,40,40,"n",7,"['2', '2', '4', 'space']","y","#000000","no",569181.3713,1,"neutral","psycho","psycho","psycho",0,"uniform",1,0,0,0,NA,0,0,NA,0,0,0,0,55,55,NA,NA,NA,NA,0,0,0,NA,55,0,55,73.2296414732588,"Thu Oct 21 11:41:44 2021","The main experiment item","yes","green","no","None","circle",NA,"pinging_target_expectations 4.0.osexp","C:\Users\etp-cp-ping\Desktop\LABSSRV-EXP",75,"no","mono","no",18,"no","white","no","yes",1050,NA,100,"psycho",55,0,55,"C:/Users/etp-cp-ping/Desktop/LABSSRV-EXP/subject-3.csv","psycho",3,56,56,"Lentiform Loewenfeld","3.3.8","['vert', 'vert', 'vert', 'vert', 'hori', 'hori', 'hori', 'hori']","no",209,"None","yes",0,NA,2,"legacy",NA,1024,2,48000,-16,"experiment",3,"odd","red","no",3,"diamond",399282.4091,399336.9108,399336.952,NA,401250.3864,NA,NA,95125.9435999996,3293.27339999963,NA,95125.9656999996,574441.340599999,577299.449,NA,NA,NA,NA,3293.35319999973,401963.7622,NA,NA,574441.3567,402489.6346,574441.1609,"New experiment",19,"[0]","dist_absent",56,49,"yes","yes",1680,NA,NA,NA,NA,"NR","R","lp",NA,"Left",NA,NA,NA,NA,"practice",2,"NR","in"
"57",1581.58870000078,1581.58870000078,66054.1203999998,1,41,"n",7,"['2', '2', '4', 'space']","y","#000000","no",569181.3713,2,"bias","psycho","psycho","psycho",0,"uniform",1,0,1,1,NA,1,0,NA,0,0,1,0,56,56,NA,NA,NA,NA,0,1,1,NA,56,1,56,73.2296414732588,"Thu Oct 21 11:41:44 2021","The main experiment item","yes","red","no","5","diamond",NA,"pinging_target_expectations 4.0.osexp","C:\Users\etp-cp-ping\Desktop\LABSSRV-EXP",75,"no","mono","no",18,"no","white","no","yes",1050,NA,0,"psycho",0,1,0,"C:/Users/etp-cp-ping/Desktop/LABSSRV-EXP/subject-3.csv","psycho",0,57,1,"Lentiform Loewenfeld","3.3.8","['vert', 'hori', 'hori', 'vert', 'hori', 'vert', 'vert', 'hori']","no",200,"None","no",0,NA,2,"legacy",NA,1024,2,48000,-16,"experiment",3,"odd","green","no",3,"circle",399282.4091,603371.477,603371.525699999,NA,641799.4876,NA,NA,95125.9435999996,3293.27339999963,577872.2835,95125.9656999996,643357.920599999,646979.4692,NA,NA,NA,NA,3293.35319999973,642981.3265,577364.6136,NA,643357.9375,643353.6005,643357.8372,"New experiment",19,"[0]","dist_present",56,46,"yes","yes",1680,-21.2511781914892,10.8106631407157,"more toward","False","NR","NR","lp",NA,NA,NA,NA,-3,3,"first",999,"NR","in"
"58",1237.67060000042,2819.2593000012,67291.7910000002,2,42,"n",7,"['2', '2', '4', 'space']","y","#000000","no",569181.3713,2,"bias","psycho","psycho","psycho",0,"uniform",1,0,1,1,NA,1,0,NA,0,0,1,0,57,57,NA,NA,NA,NA,0,1,1,NA,57,1,57,73.2296414732588,"Thu Oct 21 11:41:44 2021","The main experiment item","yes","green","yes","0","circle",NA,"pinging_target_expectations 4.0.osexp","C:\Users\etp-cp-ping\Desktop\LABSSRV-EXP",75,"no","mono","no",18,"no","white","no","yes",1050,NA,0,"psycho",1,1,1,"C:/Users/etp-cp-ping/Desktop/LABSSRV-EXP/subject-3.csv","psycho",0,58,2,"Lentiform Loewenfeld","3.3.8","['vert', 'hori', 'hori', 'vert', 'hori', 'vert', 'hori', 'vert']","no",200,"None","no",0,NA,2,"legacy",NA,1024,2,48000,-16,"experiment",3,"odd","red","no",6,"diamond",399282.4091,603371.477,603371.525699999,NA,641799.4876,NA,NA,95125.9435999996,3293.27339999963,577872.2835,95125.9656999996,647047.170299999,650019.515999999,NA,NA,NA,NA,3293.35319999973,642981.3265,577364.6136,NA,647047.1845,643353.6005,647047.122399999,"New experiment",19,"[0]","dist_present",56,71,"yes","yes",1680,-20.4371156914892,25.3988506407156,"more toward","False","NR","NR","lp",NA,"Right",NA,"Right",2,0,"first",3,"NR","in"
"59",1464.99010000017,4284.24940000137,68756.7811000004,3,43,"n",7,"['2', '2', '4', 'space']","y","#000000","no",569181.3713,2,"bias","psycho","psycho","psycho",0,"uniform",1,0,1,1,NA,1,0,NA,0,0,1,0,58,58,NA,NA,NA,NA,0,1,1,NA,58,1,58,73.2296414732588,"Thu Oct 21 11:41:44 2021","The main experiment item","yes","green","no","2","diamond",NA,"pinging_target_expectations 4.0.osexp","C:\Users\etp-cp-ping\Desktop\LABSSRV-EXP",75,"no","mono","no",18,"no","white","no","yes",1050,NA,0,"psycho",2,1,2,"C:/Users/etp-cp-ping/Desktop/LABSSRV-EXP/subject-3.csv","psycho",0,59,3,"Lentiform Loewenfeld","3.3.8","['vert', 'vert', 'vert', 'hori', 'hori', 'hori', 'hori', 'vert']","yes",100,"circles","no",0,NA,2,"legacy",NA,1024,2,48000,-16,"experiment",3,"odd","red","no",7,"circle",399282.4091,603371.477,603371.525699999,NA,641799.4876,NA,NA,95125.9435999996,3293.27339999963,577872.2835,95125.9656999996,650075.5414,653363.4874,NA,NA,NA,NA,3293.35319999973,642981.3265,577364.6136,NA,650075.555599999,643353.6005,650075.4909,"New experiment",19,"[0, 82.85711659248273, 82.86333414723542, 81.66572186023505, 81.46611652761007, 81.47912787216944, 81.29361704864846, 80.98008257846651, 80.6848570351705, 77.30356967673468, 77.70300001247118, 77.69791761281881, 74.30243604320029, 75.34413172925484, 73.37259866505636, 73.52085342726285]","dist_present",56,83,"yes","yes",1680,-11.2414906914892,29.2784756407157,"more away","False","NR","NR","lp",NA,NA,NA,NA,1,-2,"first",6,"NR","in"
"60",842.527400000137,5126.77680000151,69599.3085000005,4,44,"n",7,"['2', '2', '4', 'space']","y","#000000","no",569181.3713,2,"bias","psycho","psycho","psycho",0,"uniform",1,0,1,1,NA,1,0,NA,0,0,1,0,59,59,NA,NA,NA,NA,0,1,1,NA,59,1,59,73.2296414732588,"Thu Oct 21 11:41:44 2021","The main experiment item","yes","green","no","6","diamond",NA,"pinging_target_expectations 4.0.osexp","C:\Users\etp-cp-ping\Desktop\LABSSRV-EXP",75,"no","mono","no",18,"no","white","no","yes",1050,NA,0,"psycho",3,1,3,"C:/Users/etp-cp-ping/Desktop/LABSSRV-EXP/subject-3.csv","psycho",0,60,4,"Lentiform Loewenfeld","3.3.8","['vert', 'hori', 'vert', 'vert', 'vert', 'hori', 'hori', 'hori']","no",200,"None","no",0,NA,2,"legacy",NA,1024,2,48000,-16,"experiment",3,"odd","red","no",3,"circle",399282.4091,603371.477,603371.525699999,NA,641799.4876,NA,NA,95125.9435999996,3293.27339999963,577872.2835,95125.9656999996,653427.721399999,656099.4602,NA,NA,NA,NA,3293.35319999973,642981.3265,577364.6136,NA,653427.7356,643353.6005,653427.6708,"New experiment",19,"[0]","dist_present",56,47,"yes","yes",1680,-16.2122406914892,11.9157256407156,"more toward","False","NR","NR","lp",NA,NA,NA,NA,-3,2,"first",7,"NR","in"
"61",1171.2631000001,6298.0399000016,70770.5716000006,5,45,"n",7,"['2', '2', '4', 'space']","y","#000000","no",569181.3713,2,"bias","psycho","psycho","psycho",0,"uniform",1,0,1,1,NA,1,0,NA,0,0,1,0,60,60,NA,NA,NA,NA,0,1,1,NA,60,1,60,73.2296414732588,"Thu Oct 21 11:41:44 2021","The main experiment item","yes","red","no","1","circle",NA,"pinging_target_expectations 4.0.osexp","C:\Users\etp-cp-ping\Desktop\LABSSRV-EXP",75,"no","mono","no",18,"no","white","no","yes",1050,NA,0,"psycho",4,1,4,"C:/Users/etp-cp-ping/Desktop/LABSSRV-EXP/subject-3.csv","psycho",0,61,5,"Lentiform Loewenfeld","3.3.8","['vert', 'hori', 'vert', 'hori', 'vert', 'hori', 'vert', 'hori']","no",200,"None","no",0,NA,2,"legacy",NA,1024,2,48000,-16,"experiment",3,"odd","green","yes",0,"diamond",399282.4091,603371.477,603371.525699999,NA,641799.4876,NA,NA,95125.9435999996,3293.27339999963,577872.2835,95125.9656999996,656164.9126,659331.5459,NA,NA,NA,NA,3293.35319999973,642981.3265,577364.6136,NA,656164.9271,643353.6005,656164.8575,"New experiment",19,"[0, 73.85661313788634, 74.8829043182157, 76.43825847309077, 75.20165332031952, 80.76790274465641, 77.5750689541578, 75.34752816118124, 78.42717562313038]","dist_present",56,12,"yes","yes",1680,-20.5281156914891,24.2311006407157,"more toward","False","NR","NR","lp","Left",NA,NA,NA,0,-1,"first",3,"NR","ex"
"62",2000.78370000026,8298.82360000187,72771.3553000009,5,45,"n",7,"['2', '2', '4', 'space']","y","#000000","no",569181.3713,2,"bias","psycho","psycho","psycho",0,"uniform",0,0,1,1,NA,1,0,NA,0,0,1,0,61,61,NA,NA,NA,NA,0,1,1,NA,61,1,61,73.2296414732588,"Thu Oct 21 11:41:44 2021","The main experiment item","yes","green","no","5","circle",NA,"pinging_target_expectations 4.0.osexp","C:\Users\etp-cp-ping\Desktop\LABSSRV-EXP",75,"no","mono","no",18,"no","white","no","yes",1050,NA,0,"psycho",5,1,5,"C:/Users/etp-cp-ping/Desktop/LABSSRV-EXP/subject-3.csv","psycho",0,62,6,"Lentiform Loewenfeld","3.3.8","['hori', 'vert', 'vert', 'vert', 'hori', 'hori', 'hori', 'vert']","no",200,"None","no",0,NA,2,"legacy",NA,1024,2,48000,-16,"experiment",3,"odd","red","yes",0,"diamond",399282.4091,603371.477,603371.525699999,NA,641799.4876,NA,NA,95125.9435999996,3293.27339999963,577872.2835,95125.9656999996,659392.7916,663238.414599999,NA,NA,NA,NA,3293.35319999973,642981.3265,577364.6136,NA,659392.806,643353.6005,659392.7415,"New experiment",19,"[0]","dist_present",56,16,"yes","yes",1680,-29.7933031914892,35.3238506407157,"more away","False","R","NR","hp","Right",NA,NA,NA,0,3,"first",0,"NR","ex"
"63",816.716200000024,9115.53980000189,73588.0715000009,6,46,"n",7,"['2', '2', '4', 'space']","y","#000000","no",569181.3713,2,"bias","psycho","psycho","psycho",0,"uniform",1,0,1,1,NA,1,0,NA,0,0,1,0,62,62,NA,NA,NA,NA,0,1,1,NA,62,1,62,73.2296414732588,"Thu Oct 21 11:41:44 2021","The main experiment item","yes","red","no","1","circle",NA,"pinging_target_expectations 4.0.osexp","C:\Users\etp-cp-ping\Desktop\LABSSRV-EXP",75,"no","mono","no",18,"no","white","no","yes",1050,NA,0,"psycho",6,1,6,"C:/Users/etp-cp-ping/Desktop/LABSSRV-EXP/subject-3.csv","psycho",0,63,7,"Lentiform Loewenfeld","3.3.8","['hori', 'hori', 'vert', 'vert', 'hori', 'hori', 'vert', 'vert']","no",200,"None","no",0,NA,2,"legacy",NA,1024,2,48000,-16,"experiment",3,"odd","green","yes",0,"diamond",399282.4091,603371.477,603371.525699999,NA,641799.4876,NA,NA,95125.9435999996,3293.27339999963,577872.2835,95125.9656999996,663305.1078,665907.498099999,NA,NA,NA,NA,3293.35319999973,642981.3265,577364.6136,NA,663305.1219,643353.6005,663305.0586,"New experiment",19,"[0]","dist_present",56,12,"yes","yes",1680,-16.7295531914892,23.5062881407157,"more toward","False","R","NR","hp","Left",NA,NA,NA,0,-1,"first",0,"R","ex"
"64",1023.89639999997,10139.4362000019,74611.9679000009,6,46,"n",7,"['2', '2', '4', 'space']","y","#000000","no",569181.3713,2,"bias","psycho","psycho","psycho",0,"uniform",0,0,1,1,NA,1,0,NA,0,0,1,0,63,63,NA,NA,NA,NA,0,1,1,NA,63,1,63,73.2296414732588,"Thu Oct 21 11:41:44 2021","The main experiment item","yes","red","no","1","diamond",NA,"pinging_target_expectations 4.0.osexp","C:\Users\etp-cp-ping\Desktop\LABSSRV-EXP",75,"no","mono","no",18,"no","white","no","yes",1050,NA,0,"psycho",7,1,7,"C:/Users/etp-cp-ping/Desktop/LABSSRV-EXP/subject-3.csv","psycho",0,64,8,"Lentiform Loewenfeld","3.3.8","['hori', 'vert', 'vert', 'hori', 'hori', 'vert', 'hori', 'vert']","yes",100,"diamond","no",0,NA,2,"legacy",NA,1024,2,48000,-16,"experiment",3,"odd","green","yes",0,"circle",399282.4091,603371.477,603371.525699999,NA,641799.4876,NA,NA,95125.9435999996,3293.27339999963,577872.2835,95125.9656999996,665966.3247,668931.546899999,NA,NA,NA,NA,3293.35319999973,642981.3265,577364.6136,NA,665966.3387,643353.6005,665966.2749,"New experiment",19,"[0]","dist_present",56,12,"yes","yes",1680,-18.4061781914892,-6.25439935928433,"more toward","False","R","R","hp","Left",NA,NA,NA,0,-1,"first",0,"R","ex"
"65",1076.80520000029,11216.2414000022,75688.7731000012,7,47,"n",7,"['2', '2', '4', 'space']","y","#000000","no",569181.3713,2,"bias","psycho","psycho","psycho",0,"uniform",1,0,1,1,NA,1,0,NA,0,0,1,0,64,64,NA,NA,NA,NA,0,1,1,NA,64,1,64,73.2296414732588,"Thu Oct 21 11:41:44 2021","The main experiment item","yes","red","no","4","diamond",NA,"pinging_target_expectations 4.0.osexp","C:\Users\etp-cp-ping\Desktop\LABSSRV-EXP",75,"no","mono","no",18,"no","white","no","yes",1050,NA,0,"psycho",8,1,8,"C:/Users/etp-cp-ping/Desktop/LABSSRV-EXP/subject-3.csv","psycho",0,65,9,"Lentiform Loewenfeld","3.3.8","['hori', 'vert', 'vert', 'vert', 'hori', 'vert', 'hori', 'hori']","yes",100,"circles","no",0,NA,2,"legacy",NA,1024,2,48000,-16,"experiment",3,"odd","green","no",2,"circle",399282.4091,603371.477,603371.525699999,NA,641799.4876,NA,NA,95125.9435999996,3293.27339999963,577872.2835,95125.9656999996,668995.0326,672115.5247,NA,NA,NA,NA,3293.35319999973,642981.3265,577364.6136,NA,668995.0468,643353.6005,668994.9821,"New experiment",19,"[0]","dist_present",56,35,"yes","yes",1680,-26.9855531914892,29.4756006407157,"more away","False","NR","NR","hp",NA,"Left",NA,"Left",-2,4,"first",0,"R","in"
"66",1620.35790000029,12836.5993000024,77309.1310000014,8,48,"n",7,"['2', '2', '4', 'space']","y","#000000","no",569181.3713,2,"bias","psycho","psycho","psycho",0,"uniform",1,0,1,1,NA,1,0,NA,0,0,1,0,65,65,NA,NA,NA,NA,0,1,1,NA,65,1,65,73.2296414732588,"Thu Oct 21 11:41:44 2021","The main experiment item","yes","green","no","6","circle",NA,"pinging_target_expectations 4.0.osexp","C:\Users\etp-cp-ping\Desktop\LABSSRV-EXP",75,"no","mono","no",18,"no","white","no","yes",1050,NA,0,"psycho",9,1,9,"C:/Users/etp-cp-ping/Desktop/LABSSRV-EXP/subject-3.csv","psycho",0,66,10,"Lentiform Loewenfeld","3.3.8","['hori', 'vert', 'hori', 'vert', 'vert', 'hori', 'hori', 'vert']","no",200,"None","no",0,NA,2,"legacy",NA,1024,2,48000,-16,"experiment",3,"odd","red","no",7,"diamond",399282.4091,603371.477,603371.525699999,NA,641799.4876,NA,NA,95125.9435999996,3293.27339999963,577872.2835,95125.9656999996,672181.1294,675619.5522,NA,NA,NA,NA,3293.35319999973,642981.3265,577364.6136,NA,672181.1435,643353.6005,672181.0789,"New experiment",19,"[0, 74.95558924381068, 75.23029632636248, 75.52460307043332, 77.15242442230203, 77.08758644481914, 76.55481842842764, 76.45556834308935, 76.95719205623529, 76.85846157213639, 76.66095001579986, 76.16725835369114, 75.51189736105928]","dist_present",56,87,"yes","yes",1680,-33.7143031914892,12.9800381407157,"more toward","False","NR","NR","lp",NA,NA,NA,NA,1,2,"first",2,"NR","in"
"67",1861.0918000004,14697.6911000028,79170.2228000019,9,49,"n",7,"['2', '2', '4', 'space']","y","#000000","no",569181.3713,2,"bias","psycho","psycho","psycho",0,"uniform",1,0,1,1,NA,1,0,NA,0,0,1,0,66,66,NA,NA,NA,NA,0,1,1,NA,66,1,66,73.2296414732588,"Thu Oct 21 11:41:44 2021","The main experiment item","yes","green","no","3","diamond",NA,"pinging_target_expectations 4.0.osexp","C:\Users\etp-cp-ping\Desktop\LABSSRV-EXP",75,"no","mono","no",18,"no","white","no","yes",1050,NA,0,"psycho",10,1,10,"C:/Users/etp-cp-ping/Desktop/LABSSRV-EXP/subject-3.csv","psycho",0,67,11,"Lentiform Loewenfeld","3.3.8","['hori', 'hori', 'vert', 'hori', 'vert', 'vert', 'vert', 'hori']","no",200,"None","no",0,NA,2,"legacy",NA,1024,2,48000,-16,"experiment",3,"odd","red","no",2,"circle",399282.4091,603371.477,603371.525699999,NA,641799.4876,NA,NA,95125.9435999996,3293.27339999963,577872.2835,95125.9656999996,675684.7723,679347.6372,NA,NA,NA,NA,3293.35319999973,642981.3265,577364.6136,NA,675684.7865,643353.6005,675684.722399999,"New experiment",19,"[0]","dist_present",56,34,"yes","yes",1680,-20.4591781914891,37.2886006407157,"more away","False","NR","NR","lp",NA,NA,NA,NA,-2,-3,"first",7,"NR","in"
"68",1326.36060000013,16024.051700003,80496.583400002,10,50,"n",7,"['2', '2', '4', 'space']","y","#000000","no",569181.3713,2,"bias","psycho","psycho","psycho",0,"uniform",1,0,1,1,NA,1,0,NA,0,0,1,0,67,67,NA,NA,NA,NA,0,1,1,NA,67,1,67,73.2296414732588,"Thu Oct 21 11:41:44 2021","The main experiment item","yes","red","no","None","diamond",NA,"pinging_target_expectations 4.0.osexp","C:\Users\etp-cp-ping\Desktop\LABSSRV-EXP",75,"no","mono","no",18,"no","white","no","yes",1050,NA,0,"psycho",11,1,11,"C:/Users/etp-cp-ping/Desktop/LABSSRV-EXP/subject-3.csv","psycho",0,68,12,"Lentiform Loewenfeld","3.3.8","['vert', 'hori', 'vert', 'hori', 'hori', 'vert', 'hori', 'vert']","yes",100,"circles","no",0,NA,2,"legacy",NA,1024,2,48000,-16,"experiment",3,"odd","green","yes",0,"circle",399282.4091,603371.477,603371.525699999,NA,641799.4876,NA,NA,95125.9435999996,3293.27339999963,577872.2835,95125.9656999996,679417.0279,682739.5742,NA,NA,NA,NA,3293.35319999973,642981.3265,577364.6136,NA,679417.0421,643353.6005,679416.9782,"New experiment",19,"[0]","dist_absent",56,19,"yes","yes",1680,-18.999115691489,35.0564131407157,"more away","False","NR","NR","lp",NA,NA,NA,NA,0,NA,"first",2,"NR","ex"
"69",945.402100000065,16969.453800003,81441.985500002,11,51,"n",7,"['2', '2', '4', 'space']","y","#000000","no",569181.3713,2,"bias","psycho","psycho","psycho",0,"uniform",1,0,1,1,NA,1,0,NA,0,0,1,0,68,68,NA,NA,NA,NA,0,1,1,NA,68,1,68,73.2296414732588,"Thu Oct 21 11:41:44 2021","The main experiment item","yes","red","no","7","diamond",NA,"pinging_target_expectations 4.0.osexp","C:\Users\etp-cp-ping\Desktop\LABSSRV-EXP",75,"no","mono","no",18,"no","white","no","yes",1050,NA,0,"psycho",12,1,12,"C:/Users/etp-cp-ping/Desktop/LABSSRV-EXP/subject-3.csv","psycho",0,69,13,"Lentiform Loewenfeld","3.3.8","['hori', 'vert', 'hori', 'vert', 'vert', 'vert', 'hori', 'hori']","yes",100,"circles","no",0,NA,2,"legacy",NA,1024,2,48000,-16,"experiment",3,"odd","green","yes",0,"circle",399282.4091,603371.477,603371.525699999,NA,641799.4876,NA,NA,95125.9435999996,3293.27339999963,577872.2835,95125.9656999996,682799.7933,685555.458,NA,NA,NA,NA,3293.35319999973,642981.3265,577364.6136,NA,682799.8071,643353.6005,682799.7421,"New experiment",19,"[0]","dist_present",56,18,"yes","yes",1680,-32.4361156914892,32.6139756407158,"more away","False","R","NR","hp","Right",NA,NA,NA,0,1,"first",0,"NR","ex"
"70",1096.83110000053,18066.2849000036,82538.8166000026,12,52,"n",7,"['2', '2', '4', 'space']","y","#000000","no",569181.3713,2,"bias","psycho","psycho","psycho",0,"uniform",1,0,1,1,NA,1,0,NA,0,0,1,0,69,69,NA,NA,NA,NA,0,1,1,NA,69,1,69,73.2296414732588,"Thu Oct 21 11:41:44 2021","The main experiment item","yes","green","no","7","circle",NA,"pinging_target_expectations 4.0.osexp","C:\Users\etp-cp-ping\Desktop\LABSSRV-EXP",75,"no","mono","no",18,"no","white","no","yes",1050,NA,0,"psycho",13,1,13,"C:/Users/etp-cp-ping/Desktop/LABSSRV-EXP/subject-3.csv","psycho",0,70,14,"Lentiform Loewenfeld","3.3.8","['vert', 'hori', 'hori', 'vert', 'hori', 'hori', 'vert', 'vert']","no",200,"None","no",0,NA,2,"legacy",NA,1024,2,48000,-16,"experiment",3,"odd","red","no",5,"diamond",399282.4091,603371.477,603371.525699999,NA,641799.4876,NA,NA,95125.9435999996,3293.27339999963,577872.2835,95125.9656999996,685623.383499999,688771.444,NA,NA,NA,NA,3293.35319999973,642981.3265,577364.6136,NA,685623.3977,643353.6005,685623.331799999,"New experiment",19,"[0, 76.60872974501846, 78.05925014502682, 79.96724707947214, 80.7885971936893, 82.74355406765434, 87.4951649054774, 86.96374017078806, 87.99478303184007, 87.48323483362007, 87.32122333615477, 89.38514481596076, 89.54916282957261, 92.4995109784403, 92.27999901264728, 92.458856928958, 93.99422859817946, 90.04405520322652, 92.28353049163215, 90.47234826609727, 87.80873320991984, 90.12950747494452, 88.67129446396284, 89.32334190557518, 87.2979516696867, 88.31004638201014, 88.47155081005174, 87.66577364429344, 88.28167699012205, 88.91033883667032, 87.02370209640412, 88.52493598976947, 87.67214920983122, 87.12296200091625, 87.48499156998983, 87.64292278366119, 88.54838300507633, 89.10966537575598, 88.00661981826782, 88.69947711915601, 88.13538426462667, 88.2703087799636, 87.95327242282183, 87.35778372835466, 87.24049765534977, 88.0309373746488, 88.24586053666069, 89.56745010145193, 88.763632618242, 88.74824774073866, 88.9683443912054, 88.99643297913127, 86.0277003615311, 87.07314054402492, 87.51257833699248, 87.03753479608211, 86.622249854887, 88.95445687513337, 88.65828862048619, 89.10966537575598, 86.643685797492, 86.73728045260063, 87.26419448245669, 86.9346760807998, 86.45491685801639, 87.33457223416461, 87.03987363301334, 87.00282807061679, 85.90473506076698]","dist_present",56,68,"yes","yes",1680,-18.9369906914891,14.4453506407157,"more toward","False","NR","R","hp",NA,NA,NA,NA,3,1,"first",0,"R","in"
"71",973.46279999963,19039.7477000032,83512.2794000022,13,53,"n",7,"['2', '2', '4', 'space']","y","#000000","no",569181.3713,2,"bias","psycho","psycho","psycho",0,"uniform",1,0,1,1,NA,1,0,NA,0,0,1,0,70,70,NA,NA,NA,NA,0,1,1,NA,70,1,70,73.2296414732588,"Thu Oct 21 11:41:44 2021","The main experiment item","yes","green","no","4","circle",NA,"pinging_target_expectations 4.0.osexp","C:\Users\etp-cp-ping\Desktop\LABSSRV-EXP",75,"no","mono","no",18,"no","white","no","yes",1050,NA,0,"psycho",14,1,14,"C:/Users/etp-cp-ping/Desktop/LABSSRV-EXP/subject-3.csv","psycho",0,71,15,"Lentiform Loewenfeld","3.3.8","['hori', 'hori', 'vert', 'hori', 'hori', 'vert', 'vert', 'vert']","yes",100,"diamond","no",0,NA,2,"legacy",NA,1024,2,48000,-16,"experiment",3,"odd","red","no",6,"diamond",399282.4091,603371.477,603371.525699999,NA,641799.4876,NA,NA,95125.9435999996,3293.27339999963,577872.2835,95125.9656999996,688834.5971,691875.4558,NA,NA,NA,NA,3293.35319999973,642981.3265,577364.6136,NA,688834.6109,643353.6005,688834.5427,"New experiment",19,"[0]","dist_present",56,75,"yes","yes",1680,-27.6268031914892,31.1194131407157,"more away","False","NR","NR","lp",NA,"Right",NA,"Right",2,4,"first",5,"NR","in"
"72",1970.8541,21010.6018000032,85483.1335000022,14,54,"n",7,"['2', '2', '4', 'space']","y","#000000","no",569181.3713,2,"bias","psycho","psycho","psycho",0,"uniform",1,0,1,1,NA,1,0,NA,0,0,1,0,71,71,NA,NA,NA,NA,0,1,1,NA,71,1,71,73.2296414732588,"Thu Oct 21 11:41:44 2021","The main experiment item","yes","red","no","2","diamond",NA,"pinging_target_expectations 4.0.osexp","C:\Users\etp-cp-ping\Desktop\LABSSRV-EXP",75,"no","mono","no",18,"no","white","no","yes",1050,NA,0,"psycho",15,1,15,"C:/Users/etp-cp-ping/Desktop/LABSSRV-EXP/subject-3.csv","psycho",0,72,16,"Lentiform Loewenfeld","3.3.8","['vert', 'vert', 'hori', 'hori', 'vert', 'hori', 'hori', 'vert']","no",200,"None","no",0,NA,2,"legacy",NA,1024,2,48000,-16,"experiment",3,"odd","green","no",3,"circle",399282.4091,603371.477,603371.525699999,NA,641799.4876,NA,NA,95125.9435999996,3293.27339999963,577872.2835,95125.9656999996,691938.422499999,695763.4879,NA,NA,NA,NA,3293.35319999973,642981.3265,577364.6136,NA,691938.4364,643353.6005,691938.370899999,"New experiment",19,"[0]","dist_present",56,43,"yes","yes",1680,-32.6380531914892,26.0813506407157,"more toward","False","NR","NR","lp",NA,NA,NA,NA,-3,-2,"first",6,"NR","in"
"73",1221.09399999946,22231.6958000027,86704.2275000017,15,55,"n",7,"['2', '2', '4', 'space']","y","#000000","no",569181.3713,2,"bias","psycho","psycho","psycho",0,"uniform",1,0,1,1,NA,1,0,NA,0,0,1,0,72,72,NA,NA,NA,NA,0,1,1,NA,72,1,72,73.2296414732588,"Thu Oct 21 11:41:44 2021","The main experiment item","yes","green","no","3","diamond",NA,"pinging_target_expectations 4.0.osexp","C:\Users\etp-cp-ping\Desktop\LABSSRV-EXP",75,"no","mono","no",18,"no","white","no","yes",1050,NA,0,"psycho",16,1,16,"C:/Users/etp-cp-ping/Desktop/LABSSRV-EXP/subject-3.csv","psycho",0,73,17,"Lentiform Loewenfeld","3.3.8","['hori', 'vert', 'hori', 'hori', 'vert', 'vert', 'vert', 'hori']","yes",100,"diamond","no",0,NA,2,"legacy",NA,1024,2,48000,-16,"experiment",3,"odd","red","no",1,"circle",399282.4091,603371.477,603371.525699999,NA,641799.4876,NA,NA,95125.9435999996,3293.27339999963,577872.2835,95125.9656999996,695828.835599999,699011.5793,NA,NA,NA,NA,3293.35319999973,642981.3265,577364.6136,NA,695828.8498,643353.6005,695828.7837,"New experiment",19,"[0]","dist_present",56,24,"yes","yes",1680,-23.8812406914893,26.1184756407157,"more toward","False","NR","NR","lp",NA,NA,NA,NA,-1,-3,"first",3,"NR","in"
"74",729.910099999863,22961.6059000025,87434.1376000015,16,56,"n",7,"['2', '2', '4', 'space']","y","#000000","no",569181.3713,2,"bias","psycho","psycho","psycho",0,"uniform",1,0,1,1,NA,1,0,NA,0,0,1,0,73,73,NA,NA,NA,NA,0,1,1,NA,73,1,73,73.2296414732588,"Thu Oct 21 11:41:44 2021","The main experiment item","yes","green","no","4","circle",NA,"pinging_target_expectations 4.0.osexp","C:\Users\etp-cp-ping\Desktop\LABSSRV-EXP",75,"no","mono","no",18,"no","white","no","yes",1050,NA,0,"psycho",17,1,17,"C:/Users/etp-cp-ping/Desktop/LABSSRV-EXP/subject-3.csv","psycho",0,74,18,"Lentiform Loewenfeld","3.3.8","['vert', 'vert', 'hori', 'hori', 'hori', 'hori', 'vert', 'vert']","no",200,"None","no",0,NA,2,"legacy",NA,1024,2,48000,-16,"experiment",3,"odd","red","no",1,"diamond",399282.4091,603371.477,603371.525699999,NA,641799.4876,NA,NA,95125.9435999996,3293.27339999963,577872.2835,95125.9656999996,699078.0866,701699.6283,NA,NA,NA,NA,3293.35319999973,642981.3265,577364.6136,NA,699078.101,643353.6005,699078.0371,"New experiment",19,"[0]","dist_present",56,25,"yes","yes",1680,-26.6418031914892,28.5150381407157,"more away","False","R","NR","lp",NA,"Left",NA,NA,-1,4,"first",1,"NR","in"
"75",705.134599999874,23666.7405000024,88139.2722000014,17,57,"n",7,"['2', '2', '4', 'space']","y","#000000","no",569181.3713,2,"bias","psycho","psycho","psycho",0,"uniform",1,0,1,1,NA,1,0,NA,0,0,1,0,74,74,NA,NA,NA,NA,0,1,1,NA,74,1,74,73.2296414732588,"Thu Oct 21 11:41:44 2021","The main experiment item","yes","green","no","4","circle",NA,"pinging_target_expectations 4.0.osexp","C:\Users\etp-cp-ping\Desktop\LABSSRV-EXP",75,"no","mono","no",18,"no","white","no","yes",1050,NA,0,"psycho",18,1,18,"C:/Users/etp-cp-ping/Desktop/LABSSRV-EXP/subject-3.csv","psycho",0,75,19,"Lentiform Loewenfeld","3.3.8","['vert', 'hori', 'hori', 'vert', 'hori', 'vert', 'vert', 'hori']","yes",100,"circles","no",0,NA,2,"legacy",NA,1024,2,48000,-16,"experiment",3,"odd","red","yes",0,"diamond",399282.4091,603371.477,603371.525699999,NA,641799.4876,NA,NA,95125.9435999996,3293.27339999963,577872.2835,95125.9656999996,701760.5704,704323.5089,NA,NA,NA,NA,3293.35319999973,642981.3265,577364.6136,NA,701760.5845,643353.6005,701760.521,"New experiment",19,"[0, 74.80567453657004, 75.13194564625512, 77.37660146704553, 77.26998289340979, 73.78625026073014, 79.71075074405229, 79.85497475679794, 77.15418693766627, 74.0575955489806]","dist_present",56,15,"yes","yes",1680,-30.9694281914892,38.4282256407157,"more away","False","NR","R","lp",NA,NA,NA,NA,0,4,"first",1,"R","ex"
"76",2000.05429999961,25666.794800002,90139.326500001,17,57,"n",7,"['2', '2', '4', 'space']","y","#000000","no",569181.3713,2,"bias","psycho","psycho","psycho",0,"uniform",0,0,1,1,NA,1,0,NA,0,0,1,0,75,75,NA,NA,NA,NA,0,1,1,NA,75,1,75,73.2296414732588,"Thu Oct 21 11:41:44 2021","The main experiment item","yes","green","no","5","diamond",NA,"pinging_target_expectations 4.0.osexp","C:\Users\etp-cp-ping\Desktop\LABSSRV-EXP",75,"no","mono","no",18,"no","white","no","yes",1050,NA,0,"psycho",19,1,19,"C:/Users/etp-cp-ping/Desktop/LABSSRV-EXP/subject-3.csv","psycho",0,76,20,"Lentiform Loewenfeld","3.3.8","['hori', 'hori', 'vert', 'hori', 'vert', 'hori', 'vert', 'vert']","no",200,"None","no",0,NA,2,"legacy",NA,1024,2,48000,-16,"experiment",3,"odd","red","no",2,"circle",399282.4091,603371.477,603371.525699999,NA,641799.4876,NA,NA,95125.9435999996,3293.27339999963,577872.2835,95125.9656999996,704384.6007,708014.9261,NA,NA,NA,NA,3293.35319999973,642981.3265,577364.6136,NA,704384.6146,643353.6005,704384.5492,"New experiment",19,"[0, 75.27294390407198, 78.36613847930109, 78.49291744086887, 82.4114815721852, 81.91277240281633, 81.3600395774219, 83.92614449319672, 81.29361704864846, 80.00008688350147, 79.7054948738613, 78.01861123303345, 78.21825925922741, 78.18757111495543, 75.79038156967452]","dist_present",56,36,"yes","yes",1680,-38.0299281914892,23.8931631407157,"more toward","False","NR","NR","hp",NA,NA,NA,NA,-2,3,"first",0,"NR","in"
"77",1344.16069999954,27010.9555000016,91483.4872000006,18,58,"n",7,"['2', '2', '4', 'space']","y","#000000","no",569181.3713,2,"bias","psycho","psycho","psycho",0,"uniform",1,0,1,1,NA,1,0,NA,0,0,1,0,76,76,NA,NA,NA,NA,0,1,1,NA,76,1,76,73.2296414732588,"Thu Oct 21 11:41:44 2021","The main experiment item","yes","red","no","6","diamond",NA,"pinging_target_expectations 4.0.osexp","C:\Users\etp-cp-ping\Desktop\LABSSRV-EXP",75,"no","mono","no",18,"no","white","no","yes",1050,NA,0,"psycho",20,1,20,"C:/Users/etp-cp-ping/Desktop/LABSSRV-EXP/subject-3.csv","psycho",0,77,21,"Lentiform Loewenfeld","3.3.8","['vert', 'hori', 'vert', 'vert', 'hori', 'vert', 'hori', 'hori']","yes",100,"diamond","no",0,NA,2,"legacy",NA,1024,2,48000,-16,"experiment",3,"odd","green","no",4,"circle",399282.4091,603371.477,603371.525699999,NA,641799.4876,NA,NA,95125.9435999996,3293.27339999963,577872.2835,95125.9656999996,708079.2975,711219.5876,NA,NA,NA,NA,3293.35319999973,642981.3265,577364.6136,NA,708079.3116,643353.6005,708079.2481,"New experiment",19,"[0]","dist_present",56,57,"yes","yes",1680,-28.1893656914891,25.6867256407157,"more toward","False","NR","NR","lp","Right",NA,"Right",NA,4,2,"first",2,"NR","in"
"78",598.200800000108,27609.1563000017,92081.6880000007,19,59,"n",7,"['2', '2', '4', 'space']","y","#000000","no",569181.3713,2,"bias","psycho","psycho","psycho",0,"uniform",1,0,1,1,NA,1,0,NA,0,0,1,0,77,77,NA,NA,NA,NA,0,1,1,NA,77,1,77,73.2296414732588,"Thu Oct 21 11:41:44 2021","The main experiment item","yes","green","yes","0","circle",NA,"pinging_target_expectations 4.0.osexp","C:\Users\etp-cp-ping\Desktop\LABSSRV-EXP",75,"no","mono","no",18,"no","white","no","yes",1050,NA,0,"psycho",21,1,21,"C:/Users/etp-cp-ping/Desktop/LABSSRV-EXP/subject-3.csv","psycho",0,78,22,"Lentiform Loewenfeld","3.3.8","['hori', 'hori', 'vert', 'vert', 'vert', 'hori', 'vert', 'hori']","yes",100,"circles","no",0,NA,2,"legacy",NA,1024,2,48000,-16,"experiment",3,"odd","red","no",4,"diamond",399282.4091,603371.477,603371.525699999,NA,641799.4876,NA,NA,95125.9435999996,3293.27339999963,577872.2835,95125.9656999996,711282.659,713715.5553,NA,NA,NA,NA,3293.35319999973,642981.3265,577364.6136,NA,711282.6734,643353.6005,711282.6092,"New experiment",19,"[0]","dist_present",56,51,"yes","yes",1680,-26.3538031914892,23.9555381407157,"more toward","False","R","NR","lp",NA,NA,NA,NA,4,0,"first",4,"NR","in"
"79",719.889799999655,28329.0461000013,92801.5778000003,20,60,"n",7,"['2', '2', '4', 'space']","y","#000000","no",569181.3713,2,"bias","psycho","psycho","psycho",0,"uniform",1,0,1,1,NA,1,0,NA,0,0,1,0,78,78,NA,NA,NA,NA,0,1,1,NA,78,1,78,73.2296414732588,"Thu Oct 21 11:41:44 2021","The main experiment item","yes","green","no","None","diamond",NA,"pinging_target_expectations 4.0.osexp","C:\Users\etp-cp-ping\Desktop\LABSSRV-EXP",75,"no","mono","no",18,"no","white","no","yes",1050,NA,0,"psycho",22,1,22,"C:/Users/etp-cp-ping/Desktop/LABSSRV-EXP/subject-3.csv","psycho",0,79,23,"Lentiform Loewenfeld","3.3.8","['hori', 'vert', 'vert', 'hori', 'vert', 'hori', 'hori', 'vert']","no",200,"None","no",0,NA,2,"legacy",NA,1024,2,48000,-16,"experiment",3,"odd","red","yes",0,"circle",399282.4091,603371.477,603371.525699999,NA,641799.4876,NA,NA,95125.9435999996,3293.27339999963,577872.2835,95125.9656999996,713827.9131,716291.3923,NA,NA,NA,NA,3293.35319999973,642981.3265,577364.6136,NA,713827.9272,643353.6005,713827.863699999,"New experiment",19,"[0]","dist_absent",56,19,"yes","yes",1680,-27.9093656914893,28.0604756407157,"more away","False","NR","NR","lp",NA,NA,NA,NA,0,NA,"first",4,"R","ex"
"80",1234.90980000037,29563.9559000017,94036.4876000007,21,61,"n",7,"['2', '2', '4', 'space']","y","#000000","no",569181.3713,2,"bias","psycho","psycho","psycho",0,"uniform",1,0,1,1,NA,1,0,NA,0,0,1,0,79,79,NA,NA,NA,NA,0,1,1,NA,79,1,79,73.2296414732588,"Thu Oct 21 11:41:44 2021","The main experiment item","yes","red","no","None","circle",NA,"pinging_target_expectations 4.0.osexp","C:\Users\etp-cp-ping\Desktop\LABSSRV-EXP",75,"no","mono","no",18,"no","white","no","yes",1050,NA,0,"psycho",23,1,23,"C:/Users/etp-cp-ping/Desktop/LABSSRV-EXP/subject-3.csv","psycho",0,80,24,"Lentiform Loewenfeld","3.3.8","['vert', 'vert', 'vert', 'hori', 'hori', 'hori', 'vert', 'hori']","no",200,"None","no",0,NA,2,"legacy",NA,1024,2,48000,-16,"experiment",3,"odd","green","yes",0,"diamond",399282.4091,603371.477,603371.525699999,NA,641799.4876,NA,NA,95125.9435999996,3293.27339999963,577872.2835,95125.9656999996,716351.9156,719427.5016,NA,NA,NA,NA,3293.35319999973,642981.3265,577364.6136,NA,716351.9298,643353.6005,716351.8662,"New experiment",19,"[0]","dist_absent",56,19,"yes","yes",1680,-21.5453656914892,23.4767881407158,"more toward","False","R","R","hp",NA,NA,NA,NA,0,NA,"first",0,"NR","ex"
"81",620.104900000151,30184.0608000018,94656.5925000008,22,62,"n",7,"['2', '2', '4', 'space']","y","#000000","no",569181.3713,2,"bias","psycho","psycho","psycho",0,"uniform",1,0,1,1,NA,1,0,NA,0,0,1,0,80,80,NA,NA,NA,NA,0,1,1,NA,80,1,80,73.2296414732588,"Thu Oct 21 11:41:44 2021","The main experiment item","yes","green","no","None","circle",NA,"pinging_target_expectations 4.0.osexp","C:\Users\etp-cp-ping\Desktop\LABSSRV-EXP",75,"no","mono","no",18,"no","white","no","yes",1050,NA,0,"psycho",24,1,24,"C:/Users/etp-cp-ping/Desktop/LABSSRV-EXP/subject-3.csv","psycho",0,81,25,"Lentiform Loewenfeld","3.3.8","['hori', 'vert', 'vert', 'vert', 'hori', 'hori', 'hori', 'vert']","no",200,"None","no",0,NA,2,"legacy",NA,1024,2,48000,-16,"experiment",3,"odd","red","yes",0,"diamond",399282.4091,603371.477,603371.525699999,NA,641799.4876,NA,NA,95125.9435999996,3293.27339999963,577872.2835,95125.9656999996,719492.7025,722019.4918,NA,NA,NA,NA,3293.35319999973,642981.3265,577364.6136,NA,719492.7167,643353.6005,719492.652299999,"New experiment",19,"[0]","dist_absent",56,19,"yes","yes",1680,-26.0087406914893,14.5435381407156,"more toward","False","R","R","hp",NA,NA,NA,NA,0,NA,"first",0,"R","ex"
