"","RT","RT_bl","RT_tot","acc_bl","acc_tot","answer_debrief_1","answer_debrief_2","answer_debrief_3","answer_debrief_4","background","bidi","blink_onset","block_cnt","block_type","canvas_backend","clock_backend","color_backend","compensation","coordinates","correct","count_block_loop","count_block_seq","count_block_settings","count_check_session","count_drift_correct","count_end_loop","count_end_seq","count_exp_settings","count_experiment","count_feedback","count_instructions","count_log_variables","count_logger","count_new_inline_script","count_new_pygaze_drift_correct","count_new_pygaze_start_recording","count_new_pygaze_stop_recording","count_pygaze","count_start_recording","count_stop_recording","count_test_location","count_trial","count_trial_loop","count_trial_seq","d_eye","datetime","description","disable_garbage_collection","dist_color","dist_high","dist_loc","dist_shape","empty_column","experiment_file","experiment_path","eye_threshold_length","font_bold","font_family","font_italic","font_size","font_underline","foreground","form_clicks","fullscreen","height","high_loc","high_prob_loc","keyboard_backend","live_row","live_row_block_loop","live_row_trial_loop","logfile","mouse_backend","nr_blinks","nr_trials","nr_trials_bl","opensesame_codename","opensesame_version","orient_list_trial","ping","ping_trigger","ping_type","practice","repeat_cycle","response","round_decimals","sampler_backend","session_nr","sound_buf_size","sound_channels","sound_freq","sound_sample_size","start","subject_nr","subject_parity","target_color","target_high","target_loc","target_shape","time_block_loop","time_block_seq","time_block_settings","time_check_session","time_drift_correct","time_end_loop","time_end_seq","time_exp_settings","time_experiment","time_feedback","time_instructions","time_log_variables","time_logger","time_new_inline_script","time_new_pygaze_drift_correct","time_new_pygaze_start_recording","time_new_pygaze_stop_recording","time_pygaze","time_start_recording","time_stop_recording","time_test_location","time_trial","time_trial_loop","time_trial_seq","title","total_blocks","tracker_dev","trial_type","trials_in_block","trigger","uniform_coordinates","update_blinks","width","x","y","toward","containsNaN","rept","repd","prevtar","pd","nt","pd_c","nt_c","tar_dist","dist_dist","prevHP","eegTar","repteeg","tarcounter"
"1",2000.37479999993,2000.37479999993,2000.37479999993,0,0,"n",2,"['8', '4', 'space']","y","#000000","no",261759.4328,1,"neutral","psycho","psycho","psycho",0,"uniform",0,0,0,0,NA,0,0,NA,0,0,0,0,0,0,NA,NA,NA,NA,0,0,0,NA,0,0,0,73.2296414732588,"Thu Oct 28 11:26:32 2021","The main experiment item","yes","green","no","4","diamond",NA,"pinging_target_expectations 4.0.osexp","C:\Users\etp-cp-ping\Desktop\LocalPC-EXP",75,"no","mono","no",18,"no","white","no","yes",1050,NA,100,"psycho",0,0,0,"C:/Users/etp-cp-ping/Desktop/LocalPC-EXP/subject-8.csv","psycho",1,1,1,"Lentiform Loewenfeld","3.3.8","['hori', 'vert', 'vert', 'hori', 'vert', 'vert', 'hori', 'hori']","no",209,"None","yes",0,NA,2,"legacy",NA,1024,2,48000,-16,"experiment",8,"even","red","no",0,"circle",252366.337,252415.1445,252415.1846,NA,259598.3515,NA,NA,67617.9760999999,1359.90050000009,NA,67617.9980000002,260745.1244,264478.08,NA,NA,NA,NA,1359.97880000014,260365.8393,NA,NA,260745.1417,260740.7396,260745.0483,"New experiment",19,"[0]","dist_present",56,15,"yes","yes",1680,NA,NA,NA,NA,"NR","NR","lp",NA,NA,NA,NA,NA,NA,"practice",999,"NR","in"
"2",1648.34749999951,3648.72229999944,3648.72229999944,0,0,"n",2,"['8', '4', 'space']","y","#000000","no",261759.4328,1,"neutral","psycho","psycho","psycho",0,"uniform",0,0,0,0,NA,0,0,NA,0,0,0,0,1,1,NA,NA,NA,NA,0,0,0,NA,1,0,1,73.2296414732588,"Thu Oct 28 11:26:32 2021","The main experiment item","yes","red","no","None","diamond",NA,"pinging_target_expectations 4.0.osexp","C:\Users\etp-cp-ping\Desktop\LocalPC-EXP",75,"no","mono","no",18,"no","white","no","yes",1050,NA,100,"psycho",1,0,1,"C:/Users/etp-cp-ping/Desktop/LocalPC-EXP/subject-8.csv","psycho",1,2,2,"Lentiform Loewenfeld","3.3.8","['hori', 'vert', 'hori', 'vert', 'hori', 'vert', 'hori', 'vert']","yes",109,"diamond","yes",0,NA,2,"legacy",NA,1024,2,48000,-16,"experiment",8,"even","green","no",4,"circle",252366.337,252415.1445,252415.1846,NA,259598.3515,NA,NA,67617.9760999999,1359.90050000009,NA,67617.9980000002,264517.45,267935.5362,NA,NA,NA,NA,1359.97880000014,260365.8393,NA,NA,264517.4645,260740.7396,264517.4013,"New experiment",19,"[0]","dist_absent",56,59,"yes","yes",1680,NA,NA,NA,NA,"NR","NR","lp",NA,NA,NA,NA,NA,NA,"practice",0,"NR","in"
"3",2000.02479999966,5648.74709999911,5648.74709999911,0,0,"n",2,"['8', '4', 'space']","y","#000000","no",269960.1457,1,"neutral","psycho","psycho","psycho",0,"uniform",0,0,0,0,NA,0,0,NA,0,0,0,0,2,2,NA,NA,NA,NA,0,0,0,NA,2,0,2,73.2296414732588,"Thu Oct 28 11:26:32 2021","The main experiment item","yes","red","no","2","circle",NA,"pinging_target_expectations 4.0.osexp","C:\Users\etp-cp-ping\Desktop\LocalPC-EXP",75,"no","mono","no",18,"no","white","no","yes",1050,NA,100,"psycho",2,0,2,"C:/Users/etp-cp-ping/Desktop/LocalPC-EXP/subject-8.csv","psycho",2,3,3,"Lentiform Loewenfeld","3.3.8","['hori', 'vert', 'hori', 'vert', 'vert', 'hori', 'hori', 'vert']","no",209,"None","yes",0,NA,2,"legacy",NA,1024,2,48000,-16,"experiment",8,"even","green","no",0,"diamond",252366.337,252415.1445,252415.1846,NA,259598.3515,NA,NA,67617.9760999999,1359.90050000009,NA,67617.9980000002,267966.386,271876.512,NA,NA,NA,NA,1359.97880000014,260365.8393,NA,NA,267966.4004,260740.7396,267966.336,"New experiment",19,"[0]","dist_present",56,13,"yes","yes",1680,NA,NA,NA,NA,"NR","NR","lp","Left",NA,"Left",NA,NA,NA,"practice",4,"NR","in"
"4",946.151299999619,6594.89839999872,6594.89839999872,1,1,"n",2,"['8', '4', 'space']","y","#000000","no",269960.1457,1,"neutral","psycho","psycho","psycho",0,"uniform",1,0,0,0,NA,0,0,NA,0,0,0,0,3,3,NA,NA,NA,NA,0,0,0,NA,3,0,3,73.2296414732588,"Thu Oct 28 11:26:32 2021","The main experiment item","yes","red","no","5","diamond",NA,"pinging_target_expectations 4.0.osexp","C:\Users\etp-cp-ping\Desktop\LocalPC-EXP",75,"no","mono","no",18,"no","white","no","yes",1050,NA,100,"psycho",3,0,3,"C:/Users/etp-cp-ping/Desktop/LocalPC-EXP/subject-8.csv","psycho",2,4,4,"Lentiform Loewenfeld","3.3.8","['hori', 'hori', 'vert', 'vert', 'vert', 'vert', 'hori', 'hori']","no",209,"None","yes",0,NA,2,"legacy",NA,1024,2,48000,-16,"experiment",8,"even","green","no",3,"circle",252366.337,252415.1445,252415.1846,NA,259598.3515,NA,NA,67617.9760999999,1359.90050000009,NA,67617.9980000002,271906.5505,274799.4109,NA,NA,NA,NA,1359.97880000014,260365.8393,NA,NA,271906.565,260740.7396,271906.5004,"New experiment",19,"[0]","dist_present",56,46,"yes","yes",1680,NA,NA,NA,NA,"NR","NR","lp",NA,NA,NA,NA,NA,NA,"practice",0,"NR","in"
"5",1792.14349999983,8387.04189999856,8387.04189999856,2,2,"n",2,"['8', '4', 'space']","y","#000000","no",275456.1727,1,"neutral","psycho","psycho","psycho",0,"uniform",1,0,0,0,NA,0,0,NA,0,0,0,0,4,4,NA,NA,NA,NA,0,0,0,NA,4,0,4,73.2296414732588,"Thu Oct 28 11:26:32 2021","The main experiment item","yes","red","no","7","circle",NA,"pinging_target_expectations 4.0.osexp","C:\Users\etp-cp-ping\Desktop\LocalPC-EXP",75,"no","mono","no",18,"no","white","no","yes",1050,NA,100,"psycho",4,0,4,"C:/Users/etp-cp-ping/Desktop/LocalPC-EXP/subject-8.csv","psycho",3,5,5,"Lentiform Loewenfeld","3.3.8","['hori', 'hori', 'hori', 'hori', 'vert', 'vert', 'vert', 'vert']","yes",109,"circles","yes",0,NA,2,"legacy",NA,1024,2,48000,-16,"experiment",8,"even","green","no",5,"diamond",252366.337,252415.1445,252415.1846,NA,259598.3515,NA,NA,67617.9760999999,1359.90050000009,NA,67617.9980000002,274829.7073,278399.4384,NA,NA,NA,NA,1359.97880000014,260365.8393,NA,NA,274829.7219,260740.7396,274829.6567,"New experiment",19,"[0]","dist_present",56,68,"yes","yes",1680,NA,NA,NA,NA,"NR","NR","lp",NA,NA,NA,NA,NA,NA,"practice",3,"NR","in"
"6",1526.20639999991,9913.24829999846,9913.24829999846,3,3,"n",2,"['8', '4', 'space']","y","#000000","no",279625.238,1,"neutral","psycho","psycho","psycho",0,"uniform",1,0,0,0,NA,0,0,NA,0,0,0,0,5,5,NA,NA,NA,NA,0,0,0,NA,5,0,5,73.2296414732588,"Thu Oct 28 11:26:32 2021","The main experiment item","yes","red","no","2","diamond",NA,"pinging_target_expectations 4.0.osexp","C:\Users\etp-cp-ping\Desktop\LocalPC-EXP",75,"no","mono","no",18,"no","white","no","yes",1050,NA,100,"psycho",5,0,5,"C:/Users/etp-cp-ping/Desktop/LocalPC-EXP/subject-8.csv","psycho",4,6,6,"Lentiform Loewenfeld","3.3.8","['hori', 'hori', 'hori', 'vert', 'vert', 'vert', 'vert', 'hori']","no",209,"None","yes",0,NA,2,"legacy",NA,1024,2,48000,-16,"experiment",8,"even","green","no",4,"circle",252366.337,252415.1445,252415.1846,NA,259598.3515,NA,NA,67617.9760999999,1359.90050000009,NA,67617.9980000002,278431.2114,281855.5081,NA,NA,NA,NA,1359.97880000014,260365.8393,NA,NA,278431.2254,260740.7396,278431.1615,"New experiment",19,"[0]","dist_present",56,53,"yes","yes",1680,NA,NA,NA,NA,"NR","NR","lp","Left",NA,"Left",NA,NA,NA,"practice",5,"NR","in"
"7",1419.36319999967,11332.6114999981,11332.6114999981,4,4,"n",2,"['8', '4', 'space']","y","#000000","no",279625.238,1,"neutral","psycho","psycho","psycho",0,"uniform",1,0,0,0,NA,0,0,NA,0,0,0,0,6,6,NA,NA,NA,NA,0,0,0,NA,6,0,6,73.2296414732588,"Thu Oct 28 11:26:32 2021","The main experiment item","yes","green","no","None","circle",NA,"pinging_target_expectations 4.0.osexp","C:\Users\etp-cp-ping\Desktop\LocalPC-EXP",75,"no","mono","no",18,"no","white","no","yes",1050,NA,100,"psycho",6,0,6,"C:/Users/etp-cp-ping/Desktop/LocalPC-EXP/subject-8.csv","psycho",4,7,7,"Lentiform Loewenfeld","3.3.8","['vert', 'hori', 'vert', 'hori', 'hori', 'hori', 'vert', 'vert']","no",209,"None","yes",0,NA,2,"legacy",NA,1024,2,48000,-16,"experiment",8,"even","red","no",1,"diamond",252366.337,252415.1445,252415.1846,NA,259598.3515,NA,NA,67617.9760999999,1359.90050000009,NA,67617.9980000002,281885.6035,285199.4609,NA,NA,NA,NA,1359.97880000014,260365.8393,NA,NA,281885.6179,260740.7396,281885.5547,"New experiment",19,"[0]","dist_absent",56,29,"yes","yes",1680,NA,NA,NA,NA,"NR","NR","lp",NA,"Left",NA,NA,NA,NA,"practice",4,"NR","in"
"8",1835.46559999924,13168.0770999974,13168.0770999974,4,4,"n",2,"['8', '4', 'space']","y","#000000","no",285601.8723,1,"neutral","psycho","psycho","psycho",0,"uniform",0,0,0,0,NA,0,0,NA,0,0,0,0,7,7,NA,NA,NA,NA,0,0,0,NA,7,0,7,73.2296414732588,"Thu Oct 28 11:26:32 2021","The main experiment item","yes","green","no","4","circle",NA,"pinging_target_expectations 4.0.osexp","C:\Users\etp-cp-ping\Desktop\LocalPC-EXP",75,"no","mono","no",18,"no","white","no","yes",1050,NA,100,"psycho",7,0,7,"C:/Users/etp-cp-ping/Desktop/LocalPC-EXP/subject-8.csv","psycho",5,8,8,"Lentiform Loewenfeld","3.3.8","['vert', 'vert', 'hori', 'hori', 'vert', 'hori', 'vert', 'hori']","yes",109,"diamond","yes",0,NA,2,"legacy",NA,1024,2,48000,-16,"experiment",8,"even","red","no",5,"diamond",252366.337,252415.1445,252415.1846,NA,259598.3515,NA,NA,67617.9760999999,1359.90050000009,NA,67617.9980000002,285229.7637,288991.5171,NA,NA,NA,NA,1359.97880000014,260365.8393,NA,NA,285229.7782,260740.7396,285229.7114,"New experiment",19,"[0]","dist_present",56,65,"yes","yes",1680,NA,NA,NA,NA,"NR","NR","lp",NA,"Right",NA,NA,NA,NA,"practice",1,"NR","in"
"9",2000.99320000026,15169.0702999976,15169.0702999976,4,4,"n",2,"['8', '4', 'space']","y","#000000","no",285601.8723,1,"neutral","psycho","psycho","psycho",0,"uniform",0,0,0,0,NA,0,0,NA,0,0,0,0,8,8,NA,NA,NA,NA,0,0,0,NA,8,0,8,73.2296414732588,"Thu Oct 28 11:26:32 2021","The main experiment item","yes","green","no","None","circle",NA,"pinging_target_expectations 4.0.osexp","C:\Users\etp-cp-ping\Desktop\LocalPC-EXP",75,"no","mono","no",18,"no","white","no","yes",1050,NA,100,"psycho",8,0,8,"C:/Users/etp-cp-ping/Desktop/LocalPC-EXP/subject-8.csv","psycho",5,9,9,"Lentiform Loewenfeld","3.3.8","['vert', 'hori', 'hori', 'vert', 'hori', 'hori', 'vert', 'vert']","no",209,"None","yes",0,NA,2,"legacy",NA,1024,2,48000,-16,"experiment",8,"even","red","no",1,"diamond",252366.337,252415.1445,252415.1846,NA,259598.3515,NA,NA,67617.9760999999,1359.90050000009,NA,67617.9980000002,289022.2447,292999.0882,NA,NA,NA,NA,1359.97880000014,260365.8393,NA,NA,289022.2594,260740.7396,289022.1939,"New experiment",19,"[0]","dist_absent",56,29,"yes","yes",1680,NA,NA,NA,NA,"NR","NR","lp",NA,"Left",NA,NA,NA,NA,"practice",5,"NR","in"
"10",1703.21140000032,16872.281699998,16872.281699998,5,5,"n",2,"['8', '4', 'space']","y","#000000","no",285601.8723,1,"neutral","psycho","psycho","psycho",0,"uniform",1,0,0,0,NA,0,0,NA,0,0,0,0,9,9,NA,NA,NA,NA,0,0,0,NA,9,0,9,73.2296414732588,"Thu Oct 28 11:26:32 2021","The main experiment item","yes","green","no","None","diamond",NA,"pinging_target_expectations 4.0.osexp","C:\Users\etp-cp-ping\Desktop\LocalPC-EXP",75,"no","mono","no",18,"no","white","no","yes",1050,NA,100,"psycho",9,0,9,"C:/Users/etp-cp-ping/Desktop/LocalPC-EXP/subject-8.csv","psycho",5,10,10,"Lentiform Loewenfeld","3.3.8","['hori', 'vert', 'hori', 'hori', 'vert', 'vert', 'hori', 'vert']","yes",109,"diamond","yes",0,NA,2,"legacy",NA,1024,2,48000,-16,"experiment",8,"even","red","no",5,"circle",252366.337,252415.1445,252415.1846,NA,259598.3515,NA,NA,67617.9760999999,1359.90050000009,NA,67617.9980000002,293029.0775,296463.4594,NA,NA,NA,NA,1359.97880000014,260365.8393,NA,NA,293029.0922,260740.7396,293029.0285,"New experiment",19,"[0]","dist_absent",56,69,"yes","yes",1680,NA,NA,NA,NA,"NR","R","lp",NA,"Right",NA,NA,NA,NA,"practice",1,"NR","in"
"11",2000.88349999988,18873.1651999978,18873.1651999978,5,5,"n",2,"['8', '4', 'space']","y","#000000","no",285601.8723,1,"neutral","psycho","psycho","psycho",0,"uniform",0,0,0,0,NA,0,0,NA,0,0,0,0,10,10,NA,NA,NA,NA,0,0,0,NA,10,0,10,73.2296414732588,"Thu Oct 28 11:26:32 2021","The main experiment item","yes","red","no","7","circle",NA,"pinging_target_expectations 4.0.osexp","C:\Users\etp-cp-ping\Desktop\LocalPC-EXP",75,"no","mono","no",18,"no","white","no","yes",1050,NA,100,"psycho",10,0,10,"C:/Users/etp-cp-ping/Desktop/LocalPC-EXP/subject-8.csv","psycho",5,11,11,"Lentiform Loewenfeld","3.3.8","['vert', 'vert', 'vert', 'hori', 'hori', 'vert', 'hori', 'hori']","yes",109,"circles","yes",0,NA,2,"legacy",NA,1024,2,48000,-16,"experiment",8,"even","green","no",6,"diamond",252366.337,252415.1445,252415.1846,NA,259598.3515,NA,NA,67617.9760999999,1359.90050000009,NA,67617.9980000002,296493.9032,300312.3265,NA,NA,NA,NA,1359.97880000014,260365.8393,NA,NA,296493.9176,260740.7396,296493.8522,"New experiment",19,"[0]","dist_present",56,78,"yes","yes",1680,NA,NA,NA,NA,"NR","NR","lp",NA,NA,NA,NA,NA,NA,"practice",5,"NR","in"
"12",2000.11100000027,20873.2761999981,20873.2761999981,5,5,"n",2,"['8', '4', 'space']","y","#000000","no",302523.1885,1,"neutral","psycho","psycho","psycho",0,"uniform",0,0,0,0,NA,0,0,NA,0,0,0,0,11,11,NA,NA,NA,NA,0,0,0,NA,11,0,11,73.2296414732588,"Thu Oct 28 11:26:32 2021","The main experiment item","yes","green","no","0","diamond",NA,"pinging_target_expectations 4.0.osexp","C:\Users\etp-cp-ping\Desktop\LocalPC-EXP",75,"no","mono","no",18,"no","white","no","yes",1050,NA,100,"psycho",11,0,11,"C:/Users/etp-cp-ping/Desktop/LocalPC-EXP/subject-8.csv","psycho",7,12,12,"Lentiform Loewenfeld","3.3.8","['hori', 'vert', 'vert', 'hori', 'hori', 'vert', 'vert', 'hori']","no",209,"None","yes",0,NA,2,"legacy",NA,1024,2,48000,-16,"experiment",8,"even","red","no",2,"circle",252366.337,252415.1445,252415.1846,NA,259598.3515,NA,NA,67617.9760999999,1359.90050000009,NA,67617.9980000002,300342.2532,304388.7218,NA,NA,NA,NA,1359.97880000014,260365.8393,NA,NA,300342.2677,260740.7396,300342.2031,"New experiment",19,"[0]","dist_present",56,31,"yes","yes",1680,NA,NA,NA,NA,"NR","NR","lp",NA,"Left",NA,"Left",NA,NA,"practice",6,"NR","in"
"13",2000.08979999984,22873.3659999979,22873.3659999979,5,5,"n",2,"['8', '4', 'space']","y","#000000","no",302523.1885,1,"neutral","psycho","psycho","psycho",0,"uniform",0,0,0,0,NA,0,0,NA,0,0,0,0,12,12,NA,NA,NA,NA,0,0,0,NA,12,0,12,73.2296414732588,"Thu Oct 28 11:26:32 2021","The main experiment item","yes","red","no","6","circle",NA,"pinging_target_expectations 4.0.osexp","C:\Users\etp-cp-ping\Desktop\LocalPC-EXP",75,"no","mono","no",18,"no","white","no","yes",1050,NA,100,"psycho",12,0,12,"C:/Users/etp-cp-ping/Desktop/LocalPC-EXP/subject-8.csv","psycho",7,13,13,"Lentiform Loewenfeld","3.3.8","['vert', 'hori', 'hori', 'vert', 'hori', 'hori', 'vert', 'vert']","yes",109,"circles","yes",0,NA,2,"legacy",NA,1024,2,48000,-16,"experiment",8,"even","green","no",0,"diamond",252366.337,252415.1445,252415.1846,NA,259598.3515,NA,NA,67617.9760999999,1359.90050000009,NA,67617.9980000002,304418.6245,308396.5748,NA,NA,NA,NA,1359.97880000014,260365.8393,NA,NA,304418.6388,260740.7396,304418.5749,"New experiment",19,"[0]","dist_present",56,17,"yes","yes",1680,NA,NA,NA,NA,"NR","NR","lp","Right",NA,"Right",NA,NA,NA,"practice",2,"NR","in"
"14",2000.52570000029,24873.8916999982,24873.8916999982,5,5,"n",2,"['8', '4', 'space']","y","#000000","no",302523.1885,1,"neutral","psycho","psycho","psycho",0,"uniform",0,0,0,0,NA,0,0,NA,0,0,0,0,13,13,NA,NA,NA,NA,0,0,0,NA,13,0,13,73.2296414732588,"Thu Oct 28 11:26:32 2021","The main experiment item","yes","green","no","1","diamond",NA,"pinging_target_expectations 4.0.osexp","C:\Users\etp-cp-ping\Desktop\LocalPC-EXP",75,"no","mono","no",18,"no","white","no","yes",1050,NA,100,"psycho",13,0,13,"C:/Users/etp-cp-ping/Desktop/LocalPC-EXP/subject-8.csv","psycho",7,14,14,"Lentiform Loewenfeld","3.3.8","['hori', 'vert', 'vert', 'hori', 'vert', 'hori', 'hori', 'vert']","yes",109,"circles","yes",0,NA,2,"legacy",NA,1024,2,48000,-16,"experiment",8,"even","red","no",0,"circle",252366.337,252415.1445,252415.1846,NA,259598.3515,NA,NA,67617.9760999999,1359.90050000009,NA,67617.9980000002,308426.4614,312249.5985,NA,NA,NA,NA,1359.97880000014,260365.8393,NA,NA,308426.4758,260740.7396,308426.4111,"New experiment",19,"[0]","dist_present",56,12,"yes","yes",1680,NA,NA,NA,NA,"R","NR","lp","Left",NA,NA,NA,NA,NA,"practice",0,"NR","in"
"15",1981.50090000033,26855.3925999986,26855.3925999986,6,6,"n",2,"['8', '4', 'space']","y","#000000","no",313254.3776,1,"neutral","psycho","psycho","psycho",0,"uniform",1,0,0,0,NA,0,0,NA,0,0,0,0,14,14,NA,NA,NA,NA,0,0,0,NA,14,0,14,73.2296414732588,"Thu Oct 28 11:26:32 2021","The main experiment item","yes","red","no","6","diamond",NA,"pinging_target_expectations 4.0.osexp","C:\Users\etp-cp-ping\Desktop\LocalPC-EXP",75,"no","mono","no",18,"no","white","no","yes",1050,NA,100,"psycho",14,0,14,"C:/Users/etp-cp-ping/Desktop/LocalPC-EXP/subject-8.csv","psycho",8,15,15,"Lentiform Loewenfeld","3.3.8","['vert', 'hori', 'hori', 'hori', 'hori', 'vert', 'vert', 'vert']","no",209,"None","yes",0,NA,2,"legacy",NA,1024,2,48000,-16,"experiment",8,"even","green","no",7,"circle",252366.337,252415.1445,252415.1846,NA,259598.3515,NA,NA,67617.9760999999,1359.90050000009,NA,67617.9980000002,312281.1662,316207.4082,NA,NA,NA,NA,1359.97880000014,260365.8393,NA,NA,312281.1806,260740.7396,312281.1166,"New experiment",19,"[0]","dist_present",56,87,"yes","yes",1680,NA,NA,NA,NA,"NR","NR","lp",NA,NA,NA,NA,NA,NA,"practice",0,"R","in"
"16",2000.89260000008,28856.2851999986,28856.2851999986,6,6,"n",2,"['8', '4', 'space']","y","#000000","no",313254.3776,1,"neutral","psycho","psycho","psycho",0,"uniform",0,0,0,0,NA,0,0,NA,0,0,0,0,15,15,NA,NA,NA,NA,0,0,0,NA,15,0,15,73.2296414732588,"Thu Oct 28 11:26:32 2021","The main experiment item","yes","red","no","6","diamond",NA,"pinging_target_expectations 4.0.osexp","C:\Users\etp-cp-ping\Desktop\LocalPC-EXP",75,"no","mono","no",18,"no","white","no","yes",1050,NA,100,"psycho",15,0,15,"C:/Users/etp-cp-ping/Desktop/LocalPC-EXP/subject-8.csv","psycho",8,16,16,"Lentiform Loewenfeld","3.3.8","['hori', 'hori', 'vert', 'hori', 'hori', 'vert', 'vert', 'vert']","yes",109,"diamond","yes",0,NA,2,"legacy",NA,1024,2,48000,-16,"experiment",8,"even","green","no",7,"circle",252366.337,252415.1445,252415.1846,NA,259598.3515,NA,NA,67617.9760999999,1359.90050000009,NA,67617.9980000002,316238.0409,320188.9562,NA,NA,NA,NA,1359.97880000014,260365.8393,NA,NA,316238.0554,260740.7396,316237.989,"New experiment",19,"[0]","dist_present",56,87,"yes","yes",1680,NA,NA,NA,NA,"R","R","lp",NA,NA,NA,NA,NA,NA,"practice",7,"NR","in"
"17",1802.49639999965,30658.7815999983,30658.7815999983,7,7,"n",2,"['8', '4', 'space']","y","#000000","no",320616.5638,1,"neutral","psycho","psycho","psycho",0,"uniform",1,0,0,0,NA,0,0,NA,0,0,0,0,16,16,NA,NA,NA,NA,0,0,0,NA,16,0,16,73.2296414732588,"Thu Oct 28 11:26:32 2021","The main experiment item","yes","red","no","2","circle",NA,"pinging_target_expectations 4.0.osexp","C:\Users\etp-cp-ping\Desktop\LocalPC-EXP",75,"no","mono","no",18,"no","white","no","yes",1050,NA,100,"psycho",16,0,16,"C:/Users/etp-cp-ping/Desktop/LocalPC-EXP/subject-8.csv","psycho",9,17,17,"Lentiform Loewenfeld","3.3.8","['hori', 'vert', 'hori', 'hori', 'vert', 'vert', 'vert', 'hori']","no",209,"None","yes",0,NA,2,"legacy",NA,1024,2,48000,-16,"experiment",8,"even","green","no",3,"diamond",252366.337,252415.1445,252415.1846,NA,259598.3515,NA,NA,67617.9760999999,1359.90050000009,NA,67617.9980000002,320222.4352,323823.3737,NA,NA,NA,NA,1359.97880000014,260365.8393,NA,NA,320222.4496,260740.7396,320222.3864,"New experiment",19,"[0]","dist_present",56,43,"yes","yes",1680,NA,NA,NA,NA,"NR","NR","lp",NA,NA,NA,NA,NA,NA,"practice",7,"R","in"
"18",1875.18820000062,32533.9697999989,32533.9697999989,7,7,"n",2,"['8', '4', 'space']","y","#000000","no",324206.0626,1,"neutral","psycho","psycho","psycho",0,"uniform",0,0,0,0,NA,0,0,NA,0,0,0,0,17,17,NA,NA,NA,NA,0,0,0,NA,17,0,17,73.2296414732588,"Thu Oct 28 11:26:32 2021","The main experiment item","yes","red","no","3","diamond",NA,"pinging_target_expectations 4.0.osexp","C:\Users\etp-cp-ping\Desktop\LocalPC-EXP",75,"no","mono","no",18,"no","white","no","yes",1050,NA,100,"psycho",17,0,17,"C:/Users/etp-cp-ping/Desktop/LocalPC-EXP/subject-8.csv","psycho",10,18,18,"Lentiform Loewenfeld","3.3.8","['hori', 'vert', 'vert', 'vert', 'hori', 'hori', 'hori', 'vert']","no",209,"None","yes",0,NA,2,"legacy",NA,1024,2,48000,-16,"experiment",8,"even","green","no",6,"circle",252366.337,252415.1445,252415.1846,NA,259598.3515,NA,NA,67617.9760999999,1359.90050000009,NA,67617.9980000002,323853.7285,327551.5465,NA,NA,NA,NA,1359.97880000014,260365.8393,NA,NA,323853.7427,260740.7396,323853.6797,"New experiment",19,"[0]","dist_present",56,74,"yes","yes",1680,NA,NA,NA,NA,"NR","NR","lp",NA,NA,NA,NA,NA,NA,"practice",3,"NR","in"
"19",1355.54620000039,33889.5159999993,33889.5159999993,8,8,"n",2,"['8', '4', 'space']","y","#000000","no",324206.0626,1,"neutral","psycho","psycho","psycho",0,"uniform",1,0,0,0,NA,0,0,NA,0,0,0,0,18,18,NA,NA,NA,NA,0,0,0,NA,18,0,18,73.2296414732588,"Thu Oct 28 11:26:32 2021","The main experiment item","yes","red","no","4","diamond",NA,"pinging_target_expectations 4.0.osexp","C:\Users\etp-cp-ping\Desktop\LocalPC-EXP",75,"no","mono","no",18,"no","white","no","yes",1050,NA,100,"psycho",18,0,18,"C:/Users/etp-cp-ping/Desktop/LocalPC-EXP/subject-8.csv","psycho",10,19,19,"Lentiform Loewenfeld","3.3.8","['hori', 'vert', 'vert', 'vert', 'vert', 'hori', 'hori', 'hori']","yes",109,"diamond","yes",0,NA,2,"legacy",NA,1024,2,48000,-16,"experiment",8,"even","green","no",0,"circle",252366.337,252415.1445,252415.1846,NA,259598.3515,NA,NA,67617.9760999999,1359.90050000009,NA,67617.9980000002,327581.7271,330639.4368,NA,NA,NA,NA,1359.97880000014,260365.8393,NA,NA,327581.7414,260740.7396,327581.6771,"New experiment",19,"[0]","dist_present",56,15,"yes","yes",1680,NA,NA,NA,NA,"NR","NR","lp",NA,NA,NA,NA,NA,NA,"practice",6,"NR","in"
"20",1355.37459999975,35244.8905999991,35244.8905999991,9,9,"n",2,"['8', '4', 'space']","y","#000000","no",324206.0626,1,"neutral","psycho","psycho","psycho",0,"uniform",1,0,0,0,NA,0,0,NA,0,0,0,0,19,19,NA,NA,NA,NA,0,0,0,NA,19,0,19,73.2296414732588,"Thu Oct 28 11:26:32 2021","The main experiment item","yes","red","no","None","diamond",NA,"pinging_target_expectations 4.0.osexp","C:\Users\etp-cp-ping\Desktop\LocalPC-EXP",75,"no","mono","no",18,"no","white","no","yes",1050,NA,100,"psycho",19,0,19,"C:/Users/etp-cp-ping/Desktop/LocalPC-EXP/subject-8.csv","psycho",10,20,20,"Lentiform Loewenfeld","3.3.8","['hori', 'vert', 'vert', 'hori', 'hori', 'vert', 'hori', 'vert']","no",209,"None","yes",0,NA,2,"legacy",NA,1024,2,48000,-16,"experiment",8,"even","green","no",2,"circle",252366.337,252415.1445,252415.1846,NA,259598.3515,NA,NA,67617.9760999999,1359.90050000009,NA,67617.9980000002,330670.4557,333983.3926,NA,NA,NA,NA,1359.97880000014,260365.8393,NA,NA,330670.4702,260740.7396,330670.402,"New experiment",19,"[0]","dist_absent",56,39,"yes","yes",1680,NA,NA,NA,NA,"NR","NR","lp",NA,"Left",NA,"Left",NA,NA,"practice",0,"NR","in"
"21",1457.54080000008,36702.4313999991,36702.4313999991,10,10,"n",2,"['8', '4', 'space']","y","#000000","no",324206.0626,1,"neutral","psycho","psycho","psycho",0,"uniform",1,0,0,0,NA,0,0,NA,0,0,0,0,20,20,NA,NA,NA,NA,0,0,0,NA,20,0,20,73.2296414732588,"Thu Oct 28 11:26:32 2021","The main experiment item","yes","red","no","7","circle",NA,"pinging_target_expectations 4.0.osexp","C:\Users\etp-cp-ping\Desktop\LocalPC-EXP",75,"no","mono","no",18,"no","white","no","yes",1050,NA,100,"psycho",20,0,20,"C:/Users/etp-cp-ping/Desktop/LocalPC-EXP/subject-8.csv","psycho",10,21,21,"Lentiform Loewenfeld","3.3.8","['vert', 'hori', 'hori', 'hori', 'hori', 'vert', 'vert', 'vert']","yes",109,"diamond","yes",0,NA,2,"legacy",NA,1024,2,48000,-16,"experiment",8,"even","green","no",4,"diamond",252366.337,252415.1445,252415.1846,NA,259598.3515,NA,NA,67617.9760999999,1359.90050000009,NA,67617.9980000002,334014.2588,337311.4084,NA,NA,NA,NA,1359.97880000014,260365.8393,NA,NA,334014.2734,260740.7396,334014.2045,"New experiment",19,"[0]","dist_present",56,58,"yes","yes",1680,NA,NA,NA,NA,"NR","NR","lp","Right",NA,NA,NA,NA,NA,"practice",2,"NR","in"
"22",2000.25619999995,38702.6875999991,38702.6875999991,10,10,"n",2,"['8', '4', 'space']","y","#000000","no",337685.8545,1,"neutral","psycho","psycho","psycho",0,"uniform",0,0,0,0,NA,0,0,NA,0,0,0,0,21,21,NA,NA,NA,NA,0,0,0,NA,21,0,21,73.2296414732588,"Thu Oct 28 11:26:32 2021","The main experiment item","yes","green","no","3","circle",NA,"pinging_target_expectations 4.0.osexp","C:\Users\etp-cp-ping\Desktop\LocalPC-EXP",75,"no","mono","no",18,"no","white","no","yes",1050,NA,100,"psycho",21,0,21,"C:/Users/etp-cp-ping/Desktop/LocalPC-EXP/subject-8.csv","psycho",11,22,22,"Lentiform Loewenfeld","3.3.8","['vert', 'hori', 'vert', 'vert', 'hori', 'hori', 'hori', 'vert']","yes",109,"circles","yes",0,NA,2,"legacy",NA,1024,2,48000,-16,"experiment",8,"even","red","no",0,"diamond",252366.337,252415.1445,252415.1846,NA,259598.3515,NA,NA,67617.9760999999,1359.90050000009,NA,67617.9980000002,337341.8114,341139.9059,NA,NA,NA,NA,1359.97880000014,260365.8393,NA,NA,337341.8258,260740.7396,337341.7601,"New experiment",19,"[0]","dist_present",56,14,"yes","yes",1680,NA,NA,NA,NA,"NR","NR","lp","Left",NA,NA,NA,NA,NA,"practice",4,"NR","in"
"23",1419.52600000059,40122.2135999997,40122.2135999997,10,10,"n",2,"['8', '4', 'space']","y","#000000","no",341955.917,1,"neutral","psycho","psycho","psycho",0,"uniform",0,0,0,0,NA,0,0,NA,0,0,0,0,22,22,NA,NA,NA,NA,0,0,0,NA,22,0,22,73.2296414732588,"Thu Oct 28 11:26:32 2021","The main experiment item","yes","green","no","1","diamond",NA,"pinging_target_expectations 4.0.osexp","C:\Users\etp-cp-ping\Desktop\LocalPC-EXP",75,"no","mono","no",18,"no","white","no","yes",1050,NA,100,"psycho",22,0,22,"C:/Users/etp-cp-ping/Desktop/LocalPC-EXP/subject-8.csv","psycho",12,23,23,"Lentiform Loewenfeld","3.3.8","['hori', 'hori', 'hori', 'vert', 'vert', 'vert', 'hori', 'vert']","no",209,"None","yes",0,NA,2,"legacy",NA,1024,2,48000,-16,"experiment",8,"even","red","no",3,"circle",252366.337,252415.1445,252415.1846,NA,259598.3515,NA,NA,67617.9760999999,1359.90050000009,NA,67617.9980000002,341169.9227,344543.4477,NA,NA,NA,NA,1359.97880000014,260365.8393,NA,NA,341169.9369,260740.7396,341169.8726,"New experiment",19,"[0]","dist_present",56,42,"yes","yes",1680,NA,NA,NA,NA,"NR","NR","lp",NA,NA,NA,NA,NA,NA,"practice",0,"NR","in"
"24",1705.86309999996,41828.0766999996,41828.0766999996,11,11,"n",2,"['8', '4', 'space']","y","#000000","no",344919.9557,1,"neutral","psycho","psycho","psycho",0,"uniform",1,0,0,0,NA,0,0,NA,0,0,0,0,23,23,NA,NA,NA,NA,0,0,0,NA,23,0,23,73.2296414732588,"Thu Oct 28 11:26:32 2021","The main experiment item","yes","red","no","1","circle",NA,"pinging_target_expectations 4.0.osexp","C:\Users\etp-cp-ping\Desktop\LocalPC-EXP",75,"no","mono","no",18,"no","white","no","yes",1050,NA,100,"psycho",23,0,23,"C:/Users/etp-cp-ping/Desktop/LocalPC-EXP/subject-8.csv","psycho",13,24,24,"Lentiform Loewenfeld","3.3.8","['hori', 'hori', 'vert', 'vert', 'vert', 'vert', 'hori', 'hori']","yes",109,"diamond","yes",0,NA,2,"legacy",NA,1024,2,48000,-16,"experiment",8,"even","green","no",7,"diamond",252366.337,252415.1445,252415.1846,NA,259598.3515,NA,NA,67617.9760999999,1359.90050000009,NA,67617.9980000002,344573.7671,348191.3352,NA,NA,NA,NA,1359.97880000014,260365.8393,NA,NA,344573.7813,260740.7396,344573.7166,"New experiment",19,"[0]","dist_present",56,82,"yes","yes",1680,NA,NA,NA,NA,"NR","R","lp",NA,NA,NA,NA,NA,NA,"practice",3,"NR","in"
"25",1334.42819999985,43162.5048999995,43162.5048999995,12,12,"n",2,"['8', '4', 'space']","y","#000000","no",344919.9557,1,"neutral","psycho","psycho","psycho",0,"uniform",1,0,0,0,NA,0,0,NA,0,0,0,0,24,24,NA,NA,NA,NA,0,0,0,NA,24,0,24,73.2296414732588,"Thu Oct 28 11:26:32 2021","The main experiment item","yes","green","no","7","circle",NA,"pinging_target_expectations 4.0.osexp","C:\Users\etp-cp-ping\Desktop\LocalPC-EXP",75,"no","mono","no",18,"no","white","no","yes",1050,NA,100,"psycho",24,0,24,"C:/Users/etp-cp-ping/Desktop/LocalPC-EXP/subject-8.csv","psycho",13,25,25,"Lentiform Loewenfeld","3.3.8","['vert', 'hori', 'hori', 'vert', 'vert', 'hori', 'hori', 'vert']","yes",109,"circles","yes",0,NA,2,"legacy",NA,1024,2,48000,-16,"experiment",8,"even","red","no",3,"diamond",252366.337,252415.1445,252415.1846,NA,259598.3515,NA,NA,67617.9760999999,1359.90050000009,NA,67617.9980000002,348222.1208,351343.3367,NA,NA,NA,NA,1359.97880000014,260365.8393,NA,NA,348222.1352,260740.7396,348222.0704,"New experiment",19,"[0]","dist_present",56,48,"yes","yes",1680,NA,NA,NA,NA,"NR","NR","lp",NA,NA,NA,NA,NA,NA,"practice",7,"NR","in"
"26",1036.18790000019,44198.6927999997,44198.6927999997,13,13,"n",2,"['8', '4', 'space']","y","#000000","no",344919.9557,1,"neutral","psycho","psycho","psycho",0,"uniform",1,0,0,0,NA,0,0,NA,0,0,0,0,25,25,NA,NA,NA,NA,0,0,0,NA,25,0,25,73.2296414732588,"Thu Oct 28 11:26:32 2021","The main experiment item","yes","green","no","None","diamond",NA,"pinging_target_expectations 4.0.osexp","C:\Users\etp-cp-ping\Desktop\LocalPC-EXP",75,"no","mono","no",18,"no","white","no","yes",1050,NA,100,"psycho",25,0,25,"C:/Users/etp-cp-ping/Desktop/LocalPC-EXP/subject-8.csv","psycho",13,26,26,"Lentiform Loewenfeld","3.3.8","['vert', 'vert', 'hori', 'vert', 'hori', 'vert', 'hori', 'hori']","no",209,"None","yes",0,NA,2,"legacy",NA,1024,2,48000,-16,"experiment",8,"even","red","no",7,"circle",252366.337,252415.1445,252415.1846,NA,259598.3515,NA,NA,67617.9760999999,1359.90050000009,NA,67617.9980000002,351373.778,354431.3225,NA,NA,NA,NA,1359.97880000014,260365.8393,NA,NA,351373.7926,260740.7396,351373.729,"New experiment",19,"[0]","dist_absent",56,89,"yes","yes",1680,NA,NA,NA,NA,"NR","NR","lp",NA,"Right",NA,NA,NA,NA,"practice",3,"NR","in"
"27",1028.36759999988,45227.0603999996,45227.0603999996,14,14,"n",2,"['8', '4', 'space']","y","#000000","no",344919.9557,1,"neutral","psycho","psycho","psycho",0,"uniform",1,0,0,0,NA,0,0,NA,0,0,0,0,26,26,NA,NA,NA,NA,0,0,0,NA,26,0,26,73.2296414732588,"Thu Oct 28 11:26:32 2021","The main experiment item","yes","green","no","0","diamond",NA,"pinging_target_expectations 4.0.osexp","C:\Users\etp-cp-ping\Desktop\LocalPC-EXP",75,"no","mono","no",18,"no","white","no","yes",1050,NA,100,"psycho",26,0,26,"C:/Users/etp-cp-ping/Desktop/LocalPC-EXP/subject-8.csv","psycho",13,27,27,"Lentiform Loewenfeld","3.3.8","['vert', 'hori', 'hori', 'vert', 'hori', 'vert', 'hori', 'vert']","yes",109,"circles","yes",0,NA,2,"legacy",NA,1024,2,48000,-16,"experiment",8,"even","red","no",2,"circle",252366.337,252415.1445,252415.1846,NA,259598.3515,NA,NA,67617.9760999999,1359.90050000009,NA,67617.9980000002,354462.7537,357215.3378,NA,NA,NA,NA,1359.97880000014,260365.8393,NA,NA,354462.7681,260740.7396,354462.7032,"New experiment",19,"[0]","dist_present",56,31,"yes","yes",1680,NA,NA,NA,NA,"NR","NR","lp",NA,"Left",NA,"Left",NA,NA,"practice",7,"NR","in"
"28",792.101000000024,46019.1613999996,46019.1613999996,15,15,"n",2,"['8', '4', 'space']","y","#000000","no",344919.9557,1,"neutral","psycho","psycho","psycho",0,"uniform",1,0,0,0,NA,0,0,NA,0,0,0,0,27,27,NA,NA,NA,NA,0,0,0,NA,27,0,27,73.2296414732588,"Thu Oct 28 11:26:32 2021","The main experiment item","yes","green","no","3","diamond",NA,"pinging_target_expectations 4.0.osexp","C:\Users\etp-cp-ping\Desktop\LocalPC-EXP",75,"no","mono","no",18,"no","white","no","yes",1050,NA,100,"psycho",27,0,27,"C:/Users/etp-cp-ping/Desktop/LocalPC-EXP/subject-8.csv","psycho",13,28,28,"Lentiform Loewenfeld","3.3.8","['hori', 'hori', 'vert', 'vert', 'hori', 'vert', 'hori', 'vert']","no",209,"None","yes",0,NA,2,"legacy",NA,1024,2,48000,-16,"experiment",8,"even","red","no",2,"circle",252366.337,252415.1445,252415.1846,NA,259598.3515,NA,NA,67617.9760999999,1359.90050000009,NA,67617.9980000002,357245.759,359791.3381,NA,NA,NA,NA,1359.97880000014,260365.8393,NA,NA,357245.7736,260740.7396,357245.7076,"New experiment",19,"[0, 175.8063869943523, 170.40498316825997, 160.4061342355454, 152.31183924604306, 141.82762942997695, 139.03024901654373, 131.43202257295738, 123.24691953078937, 114.78437618046048, 110.9148458933768, 103.28741543861203, 96.87362902255701, 88.43753354129643, 83.30303537762441, 81.30320139232661, 80.90415610823857, 85.62171130203694, 96.57911578322687, 102.52831497247233, 109.96928787121925, 118.1082767386811, 127.07656671705644, 129.0665550399638, 134.6186601012699, 140.96682483168067, 143.51043731267956, 147.37522388858883, 153.14664117640135, 157.8966788485649, 162.58056938185476, 166.79186612063612, 168.17530938000053, 170.76868600142268, 175.19525220874186, 174.94516007367528, 174.59164993926763, 173.04288796902605, 172.34759107942196]","dist_present",56,34,"yes","yes",1680,NA,NA,NA,NA,"R","NR","lp",NA,NA,NA,NA,NA,NA,"practice",2,"NR","in"
"29",2000.47670000006,48019.6380999996,48019.6380999996,15,15,"n",2,"['8', '4', 'space']","y","#000000","no",344919.9557,1,"neutral","psycho","psycho","psycho",0,"uniform",0,0,0,0,NA,0,0,NA,0,0,0,0,28,28,NA,NA,NA,NA,0,0,0,NA,28,0,28,73.2296414732588,"Thu Oct 28 11:26:32 2021","The main experiment item","yes","green","no","0","circle",NA,"pinging_target_expectations 4.0.osexp","C:\Users\etp-cp-ping\Desktop\LocalPC-EXP",75,"no","mono","no",18,"no","white","no","yes",1050,NA,100,"psycho",28,0,28,"C:/Users/etp-cp-ping/Desktop/LocalPC-EXP/subject-8.csv","psycho",13,29,29,"Lentiform Loewenfeld","3.3.8","['hori', 'vert', 'hori', 'hori', 'hori', 'vert', 'vert', 'vert']","no",209,"None","yes",0,NA,2,"legacy",NA,1024,2,48000,-16,"experiment",8,"even","red","no",1,"diamond",252366.337,252415.1445,252415.1846,NA,259598.3515,NA,NA,67617.9760999999,1359.90050000009,NA,67617.9980000002,359821.6362,363744.8642,NA,NA,NA,NA,1359.97880000014,260365.8393,NA,NA,359821.6506,260740.7396,359821.5845,"New experiment",19,"[0]","dist_present",56,21,"yes","yes",1680,NA,NA,NA,NA,"NR","NR","lp",NA,"Left",NA,NA,NA,NA,"practice",2,"R","in"
"30",1784.49270000058,49804.1308000002,49804.1308000002,16,16,"n",2,"['8', '4', 'space']","y","#000000","no",364566.8369,1,"neutral","psycho","psycho","psycho",0,"uniform",1,0,0,0,NA,0,0,NA,0,0,0,0,29,29,NA,NA,NA,NA,0,0,0,NA,29,0,29,73.2296414732588,"Thu Oct 28 11:26:32 2021","The main experiment item","yes","green","no","1","circle",NA,"pinging_target_expectations 4.0.osexp","C:\Users\etp-cp-ping\Desktop\LocalPC-EXP",75,"no","mono","no",18,"no","white","no","yes",1050,NA,100,"psycho",29,0,29,"C:/Users/etp-cp-ping/Desktop/LocalPC-EXP/subject-8.csv","psycho",14,30,30,"Lentiform Loewenfeld","3.3.8","['vert', 'hori', 'vert', 'hori', 'hori', 'vert', 'hori', 'vert']","no",209,"None","yes",0,NA,2,"legacy",NA,1024,2,48000,-16,"experiment",8,"even","red","no",4,"diamond",252366.337,252415.1445,252415.1846,NA,259598.3515,NA,NA,67617.9760999999,1359.90050000009,NA,67617.9980000002,363774.8663,367615.3095,NA,NA,NA,NA,1359.97880000014,260365.8393,NA,NA,363774.8809,260740.7396,363774.8172,"New experiment",19,"[0]","dist_present",56,52,"yes","yes",1680,NA,NA,NA,NA,"NR","NR","lp","Left",NA,NA,NA,NA,NA,"practice",1,"NR","in"
"31",1524.46299999976,51328.5938,51328.5938,17,17,"n",2,"['8', '4', 'space']","y","#000000","no",364566.8369,1,"neutral","psycho","psycho","psycho",0,"uniform",1,0,0,0,NA,0,0,NA,0,0,0,0,30,30,NA,NA,NA,NA,0,0,0,NA,30,0,30,73.2296414732588,"Thu Oct 28 11:26:32 2021","The main experiment item","yes","green","no","5","circle",NA,"pinging_target_expectations 4.0.osexp","C:\Users\etp-cp-ping\Desktop\LocalPC-EXP",75,"no","mono","no",18,"no","white","no","yes",1050,NA,100,"psycho",30,0,30,"C:/Users/etp-cp-ping/Desktop/LocalPC-EXP/subject-8.csv","psycho",14,31,31,"Lentiform Loewenfeld","3.3.8","['vert', 'vert', 'hori', 'hori', 'hori', 'vert', 'hori', 'vert']","yes",109,"diamond","yes",0,NA,2,"legacy",NA,1024,2,48000,-16,"experiment",8,"even","red","no",7,"diamond",252366.337,252415.1445,252415.1846,NA,259598.3515,NA,NA,67617.9760999999,1359.90050000009,NA,67617.9980000002,367645.7672,371087.2899,NA,NA,NA,NA,1359.97880000014,260365.8393,NA,NA,367645.7844,260740.7396,367645.7171,"New experiment",19,"[0]","dist_present",56,86,"yes","yes",1680,NA,NA,NA,NA,"NR","NR","lp",NA,NA,NA,NA,NA,NA,"practice",4,"NR","in"
"32",1599.77919999987,52928.3729999998,52928.3729999998,18,18,"n",2,"['8', '4', 'space']","y","#000000","no",364566.8369,1,"neutral","psycho","psycho","psycho",0,"uniform",1,0,0,0,NA,0,0,NA,0,0,0,0,31,31,NA,NA,NA,NA,0,0,0,NA,31,0,31,73.2296414732588,"Thu Oct 28 11:26:32 2021","The main experiment item","yes","red","no","3","diamond",NA,"pinging_target_expectations 4.0.osexp","C:\Users\etp-cp-ping\Desktop\LocalPC-EXP",75,"no","mono","no",18,"no","white","no","yes",1050,NA,100,"psycho",31,0,31,"C:/Users/etp-cp-ping/Desktop/LocalPC-EXP/subject-8.csv","psycho",14,32,32,"Lentiform Loewenfeld","3.3.8","['vert', 'hori', 'vert', 'hori', 'vert', 'hori', 'hori', 'vert']","yes",109,"circles","yes",0,NA,2,"legacy",NA,1024,2,48000,-16,"experiment",8,"even","green","no",0,"circle",252366.337,252415.1445,252415.1846,NA,259598.3515,NA,NA,67617.9760999999,1359.90050000009,NA,67617.9980000002,371117.4812,374671.2706,NA,NA,NA,NA,1359.97880000014,260365.8393,NA,NA,371117.498,260740.7396,371117.4303,"New experiment",19,"[0]","dist_present",56,14,"yes","yes",1680,NA,NA,NA,NA,"NR","NR","lp","Left",NA,NA,NA,NA,NA,"practice",7,"NR","in"
"33",1583.08230000059,54511.4553000004,54511.4553000004,18,18,"n",2,"['8', '4', 'space']","y","#000000","no",364566.8369,1,"neutral","psycho","psycho","psycho",0,"uniform",0,0,0,0,NA,0,0,NA,0,0,0,0,32,32,NA,NA,NA,NA,0,0,0,NA,32,0,32,73.2296414732588,"Thu Oct 28 11:26:32 2021","The main experiment item","yes","red","no","6","circle",NA,"pinging_target_expectations 4.0.osexp","C:\Users\etp-cp-ping\Desktop\LocalPC-EXP",75,"no","mono","no",18,"no","white","no","yes",1050,NA,100,"psycho",32,0,32,"C:/Users/etp-cp-ping/Desktop/LocalPC-EXP/subject-8.csv","psycho",14,33,33,"Lentiform Loewenfeld","3.3.8","['vert', 'vert', 'hori', 'vert', 'hori', 'hori', 'vert', 'hori']","no",209,"None","yes",0,NA,2,"legacy",NA,1024,2,48000,-16,"experiment",8,"even","green","no",3,"diamond",252366.337,252415.1445,252415.1846,NA,259598.3515,NA,NA,67617.9760999999,1359.90050000009,NA,67617.9980000002,374701.4184,378287.3197,NA,NA,NA,NA,1359.97880000014,260365.8393,NA,NA,374701.4332,260740.7396,374701.3687,"New experiment",19,"[0]","dist_present",56,47,"yes","yes",1680,NA,NA,NA,NA,"NR","NR","lp",NA,NA,NA,NA,NA,NA,"practice",0,"NR","in"
"34",2000.57560000004,56512.0309000005,56512.0309000005,18,18,"n",2,"['8', '4', 'space']","y","#000000","no",378778.5887,1,"neutral","psycho","psycho","psycho",0,"uniform",0,0,0,0,NA,0,0,NA,0,0,0,0,33,33,NA,NA,NA,NA,0,0,0,NA,33,0,33,73.2296414732588,"Thu Oct 28 11:26:32 2021","The main experiment item","yes","red","no","2","diamond",NA,"pinging_target_expectations 4.0.osexp","C:\Users\etp-cp-ping\Desktop\LocalPC-EXP",75,"no","mono","no",18,"no","white","no","yes",1050,NA,100,"psycho",33,0,33,"C:/Users/etp-cp-ping/Desktop/LocalPC-EXP/subject-8.csv","psycho",15,34,34,"Lentiform Loewenfeld","3.3.8","['hori', 'vert', 'hori', 'vert', 'vert', 'hori', 'hori', 'vert']","no",209,"None","yes",0,NA,2,"legacy",NA,1024,2,48000,-16,"experiment",8,"even","green","no",5,"circle",252366.337,252415.1445,252415.1846,NA,259598.3515,NA,NA,67617.9760999999,1359.90050000009,NA,67617.9980000002,378317.5382,382245.2111,NA,NA,NA,NA,1359.97880000014,260365.8393,NA,NA,378317.5527,260740.7396,378317.487,"New experiment",19,"[0]","dist_present",56,63,"yes","yes",1680,NA,NA,NA,NA,"NR","NR","lp",NA,NA,NA,NA,NA,NA,"practice",3,"NR","in"
"35",2000.94870000065,58512.9796000011,58512.9796000011,18,18,"n",2,"['8', '4', 'space']","y","#000000","no",382830.1649,1,"neutral","psycho","psycho","psycho",0,"uniform",0,0,0,0,NA,0,0,NA,0,0,0,0,34,34,NA,NA,NA,NA,0,0,0,NA,34,0,34,73.2296414732588,"Thu Oct 28 11:26:32 2021","The main experiment item","yes","green","no","5","circle",NA,"pinging_target_expectations 4.0.osexp","C:\Users\etp-cp-ping\Desktop\LocalPC-EXP",75,"no","mono","no",18,"no","white","no","yes",1050,NA,100,"psycho",34,0,34,"C:/Users/etp-cp-ping/Desktop/LocalPC-EXP/subject-8.csv","psycho",16,35,35,"Lentiform Loewenfeld","3.3.8","['hori', 'vert', 'vert', 'vert', 'hori', 'hori', 'hori', 'vert']","yes",109,"diamond","yes",0,NA,2,"legacy",NA,1024,2,48000,-16,"experiment",8,"even","red","no",2,"diamond",252366.337,252415.1445,252415.1846,NA,259598.3515,NA,NA,67617.9760999999,1359.90050000009,NA,67617.9980000002,382276.8199,386066.8302,NA,NA,NA,NA,1359.97880000014,260365.8393,NA,NA,382276.8343,260740.7396,382276.7713,"New experiment",19,"[0]","dist_present",56,36,"yes","yes",1680,NA,NA,NA,NA,"NR","NR","lp",NA,NA,NA,NA,NA,NA,"practice",5,"NR","in"
"36",2000.15480000002,60513.1344000011,60513.1344000011,18,18,"n",2,"['8', '4', 'space']","y","#000000","no",386638.2302,1,"neutral","psycho","psycho","psycho",0,"uniform",0,0,0,0,NA,0,0,NA,0,0,0,0,35,35,NA,NA,NA,NA,0,0,0,NA,35,0,35,73.2296414732588,"Thu Oct 28 11:26:32 2021","The main experiment item","yes","red","no","None","circle",NA,"pinging_target_expectations 4.0.osexp","C:\Users\etp-cp-ping\Desktop\LocalPC-EXP",75,"no","mono","no",18,"no","white","no","yes",1050,NA,100,"psycho",35,0,35,"C:/Users/etp-cp-ping/Desktop/LocalPC-EXP/subject-8.csv","psycho",17,36,36,"Lentiform Loewenfeld","3.3.8","['hori', 'vert', 'vert', 'vert', 'hori', 'hori', 'hori', 'vert']","no",209,"None","yes",0,NA,2,"legacy",NA,1024,2,48000,-16,"experiment",8,"even","green","no",3,"diamond",252366.337,252415.1445,252415.1846,NA,259598.3515,NA,NA,67617.9760999999,1359.90050000009,NA,67617.9980000002,386096.9068,390079.8242,NA,NA,NA,NA,1359.97880000014,260365.8393,NA,NA,386096.921,260740.7396,386096.857,"New experiment",19,"[0]","dist_absent",56,49,"yes","yes",1680,NA,NA,NA,NA,"NR","NR","lp",NA,"Left",NA,NA,NA,NA,"practice",2,"NR","in"
"37",1325.20519999985,61838.339600001,61838.339600001,19,19,"n",2,"['8', '4', 'space']","y","#000000","no",386638.2302,1,"neutral","psycho","psycho","psycho",0,"uniform",1,0,0,0,NA,0,0,NA,0,0,0,0,36,36,NA,NA,NA,NA,0,0,0,NA,36,0,36,73.2296414732588,"Thu Oct 28 11:26:32 2021","The main experiment item","yes","red","no","4","diamond",NA,"pinging_target_expectations 4.0.osexp","C:\Users\etp-cp-ping\Desktop\LocalPC-EXP",75,"no","mono","no",18,"no","white","no","yes",1050,NA,100,"psycho",36,0,36,"C:/Users/etp-cp-ping/Desktop/LocalPC-EXP/subject-8.csv","psycho",17,37,37,"Lentiform Loewenfeld","3.3.8","['hori', 'vert', 'vert', 'hori', 'vert', 'vert', 'hori', 'hori']","yes",109,"circles","yes",0,NA,2,"legacy",NA,1024,2,48000,-16,"experiment",8,"even","green","no",5,"circle",252366.337,252415.1445,252415.1846,NA,259598.3515,NA,NA,67617.9760999999,1359.90050000009,NA,67617.9980000002,390109.8383,393519.2604,NA,NA,NA,NA,1359.97880000014,260365.8393,NA,NA,390109.8529,260740.7396,390109.7891,"New experiment",19,"[0]","dist_present",56,65,"yes","yes",1680,NA,NA,NA,NA,"NR","NR","lp",NA,"Right",NA,NA,NA,NA,"practice",3,"NR","in"
"38",1156.82199999993,62995.1616000009,62995.1616000009,20,20,"n",2,"['8', '4', 'space']","y","#000000","no",393961.912,1,"neutral","psycho","psycho","psycho",0,"uniform",1,0,0,0,NA,0,0,NA,0,0,0,0,37,37,NA,NA,NA,NA,0,0,0,NA,37,0,37,73.2296414732588,"Thu Oct 28 11:26:32 2021","The main experiment item","yes","green","no","None","diamond",NA,"pinging_target_expectations 4.0.osexp","C:\Users\etp-cp-ping\Desktop\LocalPC-EXP",75,"no","mono","no",18,"no","white","no","yes",1050,NA,100,"psycho",37,0,37,"C:/Users/etp-cp-ping/Desktop/LocalPC-EXP/subject-8.csv","psycho",18,38,38,"Lentiform Loewenfeld","3.3.8","['hori', 'vert', 'hori', 'hori', 'vert', 'vert', 'vert', 'hori']","yes",109,"diamond","yes",0,NA,2,"legacy",NA,1024,2,48000,-16,"experiment",8,"even","red","no",6,"circle",252366.337,252415.1445,252415.1846,NA,259598.3515,NA,NA,67617.9760999999,1359.90050000009,NA,67617.9980000002,393549.536,396511.2519,NA,NA,NA,NA,1359.97880000014,260365.8393,NA,NA,393549.5504,260740.7396,393549.4841,"New experiment",19,"[0]","dist_absent",56,79,"yes","yes",1680,NA,NA,NA,NA,"NR","NR","lp",NA,"Right",NA,"Right",NA,NA,"practice",5,"NR","in"
"39",2000.58720000013,64995.748800001,64995.748800001,20,20,"n",2,"['8', '4', 'space']","y","#000000","no",393961.912,1,"neutral","psycho","psycho","psycho",0,"uniform",0,0,0,0,NA,0,0,NA,0,0,0,0,38,38,NA,NA,NA,NA,0,0,0,NA,38,0,38,73.2296414732588,"Thu Oct 28 11:26:32 2021","The main experiment item","yes","green","no","7","diamond",NA,"pinging_target_expectations 4.0.osexp","C:\Users\etp-cp-ping\Desktop\LocalPC-EXP",75,"no","mono","no",18,"no","white","no","yes",1050,NA,100,"psycho",38,0,38,"C:/Users/etp-cp-ping/Desktop/LocalPC-EXP/subject-8.csv","psycho",18,39,39,"Lentiform Loewenfeld","3.3.8","['vert', 'hori', 'hori', 'hori', 'vert', 'vert', 'vert', 'hori']","yes",109,"circles","yes",0,NA,2,"legacy",NA,1024,2,48000,-16,"experiment",8,"even","red","no",4,"circle",252366.337,252415.1445,252415.1846,NA,259598.3515,NA,NA,67617.9760999999,1359.90050000009,NA,67617.9980000002,396541.6001,400640.7512,NA,NA,NA,NA,1359.97880000014,260365.8393,NA,NA,396541.6144,260740.7396,396541.5487,"New experiment",19,"[0]","dist_present",56,58,"yes","yes",1680,NA,NA,NA,NA,"NR","NR","lp","Right",NA,NA,NA,NA,NA,"practice",6,"NR","in"
"40",1897.1428999994,66892.8917000004,66892.8917000004,21,21,"n",2,"['8', '4', 'space']","y","#000000","no",402335.0308,1,"neutral","psycho","psycho","psycho",0,"uniform",1,0,0,0,NA,0,0,NA,0,0,0,0,39,39,NA,NA,NA,NA,0,0,0,NA,39,0,39,73.2296414732588,"Thu Oct 28 11:26:32 2021","The main experiment item","yes","red","no","0","circle",NA,"pinging_target_expectations 4.0.osexp","C:\Users\etp-cp-ping\Desktop\LocalPC-EXP",75,"no","mono","no",18,"no","white","no","yes",1050,NA,100,"psycho",39,0,39,"C:/Users/etp-cp-ping/Desktop/LocalPC-EXP/subject-8.csv","psycho",19,40,40,"Lentiform Loewenfeld","3.3.8","['hori', 'vert', 'hori', 'vert', 'hori', 'vert', 'hori', 'vert']","yes",109,"circles","yes",0,NA,2,"legacy",NA,1024,2,48000,-16,"experiment",8,"even","green","no",1,"diamond",252366.337,252415.1445,252415.1846,NA,259598.3515,NA,NA,67617.9760999999,1359.90050000009,NA,67617.9980000002,400670.9579,404335.2469,NA,NA,NA,NA,1359.97880000014,260365.8393,NA,NA,400670.9722,260740.7396,400670.9088,"New experiment",19,"[0]","dist_present",56,21,"yes","yes",1680,NA,NA,NA,NA,"NR","NR","lp",NA,"Left",NA,NA,NA,NA,"practice",4,"NR","in"
"41",1568.09520000021,68460.9869000007,68460.9869000007,22,22,"n",2,"['8', '4', 'space']","y","#000000","no",402335.0308,1,"neutral","psycho","psycho","psycho",0,"uniform",1,0,0,0,NA,0,0,NA,0,0,0,0,40,40,NA,NA,NA,NA,0,0,0,NA,40,0,40,73.2296414732588,"Thu Oct 28 11:26:32 2021","The main experiment item","yes","red","no","0","circle",NA,"pinging_target_expectations 4.0.osexp","C:\Users\etp-cp-ping\Desktop\LocalPC-EXP",75,"no","mono","no",18,"no","white","no","yes",1050,NA,100,"psycho",40,0,40,"C:/Users/etp-cp-ping/Desktop/LocalPC-EXP/subject-8.csv","psycho",19,41,41,"Lentiform Loewenfeld","3.3.8","['hori', 'vert', 'hori', 'vert', 'vert', 'vert', 'hori', 'hori']","no",209,"None","yes",0,NA,2,"legacy",NA,1024,2,48000,-16,"experiment",8,"even","green","no",6,"diamond",252366.337,252415.1445,252415.1846,NA,259598.3515,NA,NA,67617.9760999999,1359.90050000009,NA,67617.9980000002,404365.6316,407855.2634,NA,NA,NA,NA,1359.97880000014,260365.8393,NA,NA,404365.6464,260740.7396,404365.5805,"New experiment",19,"[0]","dist_present",56,71,"yes","yes",1680,NA,NA,NA,NA,"NR","R","lp",NA,"Right",NA,"Right",NA,NA,"practice",1,"NR","in"
"42",1634.19339999929,70095.1802999999,70095.1802999999,23,23,"n",2,"['8', '4', 'space']","y","#000000","no",409238.1606,1,"neutral","psycho","psycho","psycho",0,"uniform",1,0,0,0,NA,0,0,NA,0,0,0,0,41,41,NA,NA,NA,NA,0,0,0,NA,41,0,41,73.2296414732588,"Thu Oct 28 11:26:32 2021","The main experiment item","yes","green","no","5","diamond",NA,"pinging_target_expectations 4.0.osexp","C:\Users\etp-cp-ping\Desktop\LocalPC-EXP",75,"no","mono","no",18,"no","white","no","yes",1050,NA,100,"psycho",41,0,41,"C:/Users/etp-cp-ping/Desktop/LocalPC-EXP/subject-8.csv","psycho",22,42,42,"Lentiform Loewenfeld","3.3.8","['hori', 'vert', 'vert', 'hori', 'hori', 'vert', 'vert', 'hori']","no",209,"None","yes",0,NA,2,"legacy",NA,1024,2,48000,-16,"experiment",8,"even","red","no",6,"circle",252366.337,252415.1445,252415.1846,NA,259598.3515,NA,NA,67617.9760999999,1359.90050000009,NA,67617.9980000002,407885.5838,411503.2815,NA,NA,NA,NA,1359.97880000014,260365.8393,NA,NA,407885.598,260740.7396,407885.5338,"New experiment",19,"[0]","dist_present",56,76,"yes","yes",1680,NA,NA,NA,NA,"R","NR","lp",NA,NA,NA,NA,NA,NA,"practice",6,"NR","in"
"43",1084.67419999943,71179.8544999994,71179.8544999994,24,24,"n",2,"['8', '4', 'space']","y","#000000","no",409238.1606,1,"neutral","psycho","psycho","psycho",0,"uniform",1,0,0,0,NA,0,0,NA,0,0,0,0,42,42,NA,NA,NA,NA,0,0,0,NA,42,0,42,73.2296414732588,"Thu Oct 28 11:26:32 2021","The main experiment item","yes","red","no","None","diamond",NA,"pinging_target_expectations 4.0.osexp","C:\Users\etp-cp-ping\Desktop\LocalPC-EXP",75,"no","mono","no",18,"no","white","no","yes",1050,NA,100,"psycho",42,0,42,"C:/Users/etp-cp-ping/Desktop/LocalPC-EXP/subject-8.csv","psycho",22,43,43,"Lentiform Loewenfeld","3.3.8","['hori', 'vert', 'hori', 'hori', 'hori', 'vert', 'vert', 'vert']","yes",109,"diamond","yes",0,NA,2,"legacy",NA,1024,2,48000,-16,"experiment",8,"even","green","no",2,"circle",252366.337,252415.1445,252415.1846,NA,259598.3515,NA,NA,67617.9760999999,1359.90050000009,NA,67617.9980000002,411533.7082,414607.2965,NA,NA,NA,NA,1359.97880000014,260365.8393,NA,NA,411533.7228,260740.7396,411533.6594,"New experiment",19,"[0]","dist_absent",56,39,"yes","yes",1680,NA,NA,NA,NA,"NR","NR","lp",NA,"Left",NA,"Left",NA,NA,"practice",6,"R","in"
"44",1022.19739999966,72202.051899999,72202.051899999,25,25,"n",2,"['8', '4', 'space']","y","#000000","no",414997.7454,1,"neutral","psycho","psycho","psycho",0,"uniform",1,0,0,0,NA,0,0,NA,0,0,0,0,43,43,NA,NA,NA,NA,0,0,0,NA,43,0,43,73.2296414732588,"Thu Oct 28 11:26:32 2021","The main experiment item","yes","green","no","2","circle",NA,"pinging_target_expectations 4.0.osexp","C:\Users\etp-cp-ping\Desktop\LocalPC-EXP",75,"no","mono","no",18,"no","white","no","yes",1050,NA,100,"psycho",43,0,43,"C:/Users/etp-cp-ping/Desktop/LocalPC-EXP/subject-8.csv","psycho",23,44,44,"Lentiform Loewenfeld","3.3.8","['hori', 'vert', 'hori', 'vert', 'vert', 'hori', 'vert', 'hori']","no",209,"None","yes",0,NA,2,"legacy",NA,1024,2,48000,-16,"experiment",8,"even","red","no",6,"diamond",252366.337,252415.1445,252415.1846,NA,259598.3515,NA,NA,67617.9760999999,1359.90050000009,NA,67617.9980000002,414638.3887,417375.2548,NA,NA,NA,NA,1359.97880000014,260365.8393,NA,NA,414638.4037,260740.7396,414638.3386,"New experiment",19,"[0, 419.31720798298426, 440.55703376520955, 464.75056645055685, 487.4355687690143, 513.3095480403381, 541.023105404063, 576.0932954381873, 607.6744820142699, 651.0640487211008, 658.6559153916193, 701.1306720902344, 721.1980840825745, 739.8078769038649, 755.1363208092786, 766.6571670709742, 794.1929248134442, 812.067586752545, 819.5375859010936, 854.2394802679402, 78.59192011413585, 86.91130140277862, 95.10018591637385, 101.3059597118811, 107.11047927494494, 111.80284992332199, 117.81225388527139, 123.80487439446344, 127.51415644066361, 130.12490207166462, 133.50526725293685, 135.2331446181775, 135.67557015511179, 135.1999134131182, 133.86378855657696, 130.77652694577876, 130.67187977363136, 124.39153254599515, 123.88677433045144, 119.21784285574256, 116.83429537462166, 113.41026070813376, 113.38155550576359, 113.21490285521962, 112.88577173824098, 112.98573240697364, 112.98966993798994, 114.57700512118133, 116.33973085783943, 118.46757269924372, 118.57090621145342, 118.47099046203623, 120.11698410551948, 120.11261435400228, 120.01710596868432, 119.90015560646229, 119.67369912681758, 118.97775296535205]","dist_present",56,73,"yes","yes",1680,NA,NA,NA,NA,"NR","NR","lp",NA,NA,NA,NA,NA,NA,"practice",2,"NR","in"
"45",1368.21380000038,73570.2656999994,73570.2656999994,26,26,"n",2,"['8', '4', 'space']","y","#000000","no",414997.7454,1,"neutral","psycho","psycho","psycho",0,"uniform",1,0,0,0,NA,0,0,NA,0,0,0,0,44,44,NA,NA,NA,NA,0,0,0,NA,44,0,44,73.2296414732588,"Thu Oct 28 11:26:32 2021","The main experiment item","yes","red","no","None","circle",NA,"pinging_target_expectations 4.0.osexp","C:\Users\etp-cp-ping\Desktop\LocalPC-EXP",75,"no","mono","no",18,"no","white","no","yes",1050,NA,100,"psycho",44,0,44,"C:/Users/etp-cp-ping/Desktop/LocalPC-EXP/subject-8.csv","psycho",23,45,45,"Lentiform Loewenfeld","3.3.8","['vert', 'vert', 'hori', 'vert', 'hori', 'hori', 'hori', 'vert']","no",209,"None","yes",0,NA,2,"legacy",NA,1024,2,48000,-16,"experiment",8,"even","green","no",1,"diamond",252366.337,252415.1445,252415.1846,NA,259598.3515,NA,NA,67617.9760999999,1359.90050000009,NA,67617.9980000002,417405.7781,420751.283,NA,NA,NA,NA,1359.97880000014,260365.8393,NA,NA,417405.7928,260740.7396,417405.7279,"New experiment",19,"[0]","dist_absent",56,29,"yes","yes",1680,NA,NA,NA,NA,"NR","NR","lp",NA,"Left",NA,NA,NA,NA,"practice",6,"NR","in"
"46",1642.06360000029,75212.3292999997,75212.3292999997,27,27,"n",2,"['8', '4', 'space']","y","#000000","no",421186.3812,1,"neutral","psycho","psycho","psycho",0,"uniform",1,0,0,0,NA,0,0,NA,0,0,0,0,45,45,NA,NA,NA,NA,0,0,0,NA,45,0,45,73.2296414732588,"Thu Oct 28 11:26:32 2021","The main experiment item","yes","green","no","3","circle",NA,"pinging_target_expectations 4.0.osexp","C:\Users\etp-cp-ping\Desktop\LocalPC-EXP",75,"no","mono","no",18,"no","white","no","yes",1050,NA,100,"psycho",45,0,45,"C:/Users/etp-cp-ping/Desktop/LocalPC-EXP/subject-8.csv","psycho",24,46,46,"Lentiform Loewenfeld","3.3.8","['vert', 'hori', 'hori', 'hori', 'vert', 'vert', 'hori', 'vert']","no",209,"None","yes",0,NA,2,"legacy",NA,1024,2,48000,-16,"experiment",8,"even","red","no",5,"diamond",252366.337,252415.1445,252415.1846,NA,259598.3515,NA,NA,67617.9760999999,1359.90050000009,NA,67617.9980000002,420781.7725,424319.2478,NA,NA,NA,NA,1359.97880000014,260365.8393,NA,NA,420781.7868,260740.7396,420781.7217,"New experiment",19,"[0]","dist_present",56,64,"yes","yes",1680,NA,NA,NA,NA,"NR","NR","lp",NA,NA,NA,NA,NA,NA,"practice",1,"NR","in"
"47",939.734900000098,76152.0641999998,76152.0641999998,28,28,"n",2,"['8', '4', 'space']","y","#000000","no",425446.9686,1,"neutral","psycho","psycho","psycho",0,"uniform",1,0,0,0,NA,0,0,NA,0,0,0,0,46,46,NA,NA,NA,NA,0,0,0,NA,46,0,46,73.2296414732588,"Thu Oct 28 11:26:32 2021","The main experiment item","yes","green","no","6","circle",NA,"pinging_target_expectations 4.0.osexp","C:\Users\etp-cp-ping\Desktop\LocalPC-EXP",75,"no","mono","no",18,"no","white","no","yes",1050,NA,100,"psycho",46,0,46,"C:/Users/etp-cp-ping/Desktop/LocalPC-EXP/subject-8.csv","psycho",26,47,47,"Lentiform Loewenfeld","3.3.8","['hori', 'vert', 'hori', 'vert', 'hori', 'hori', 'vert', 'vert']","yes",109,"circles","yes",0,NA,2,"legacy",NA,1024,2,48000,-16,"experiment",8,"even","red","no",1,"diamond",252366.337,252415.1445,252415.1846,NA,259598.3515,NA,NA,67617.9760999999,1359.90050000009,NA,67617.9980000002,424349.6411,426991.1925,NA,NA,NA,NA,1359.97880000014,260365.8393,NA,NA,424349.6558,260740.7396,424349.5905,"New experiment",19,"[0]","dist_present",56,27,"yes","yes",1680,NA,NA,NA,NA,"NR","NR","lp",NA,NA,NA,NA,NA,NA,"practice",5,"NR","in"
"48",1144.82979999954,77296.8939999993,77296.8939999993,29,29,"n",2,"['8', '4', 'space']","y","#000000","no",425446.9686,1,"neutral","psycho","psycho","psycho",0,"uniform",1,0,0,0,NA,0,0,NA,0,0,0,0,47,47,NA,NA,NA,NA,0,0,0,NA,47,0,47,73.2296414732588,"Thu Oct 28 11:26:32 2021","The main experiment item","yes","green","no","4","circle",NA,"pinging_target_expectations 4.0.osexp","C:\Users\etp-cp-ping\Desktop\LocalPC-EXP",75,"no","mono","no",18,"no","white","no","yes",1050,NA,100,"psycho",47,0,47,"C:/Users/etp-cp-ping/Desktop/LocalPC-EXP/subject-8.csv","psycho",26,48,48,"Lentiform Loewenfeld","3.3.8","['vert', 'vert', 'vert', 'hori', 'hori', 'vert', 'hori', 'hori']","yes",109,"circles","yes",0,NA,2,"legacy",NA,1024,2,48000,-16,"experiment",8,"even","red","no",7,"diamond",252366.337,252415.1445,252415.1846,NA,259598.3515,NA,NA,67617.9760999999,1359.90050000009,NA,67617.9980000002,427021.5616,429919.184800001,NA,NA,NA,NA,1359.97880000014,260365.8393,NA,NA,427021.5761,260740.7396,427021.5109,"New experiment",19,"[0]","dist_present",56,85,"yes","yes",1680,NA,NA,NA,NA,"NR","NR","lp",NA,"Right",NA,NA,NA,NA,"practice",1,"NR","in"
"49",1463.4895999998,78760.3835999991,78760.3835999991,29,29,"n",2,"['8', '4', 'space']","y","#000000","no",425446.9686,1,"neutral","psycho","psycho","psycho",0,"uniform",0,0,0,0,NA,0,0,NA,0,0,0,0,48,48,NA,NA,NA,NA,0,0,0,NA,48,0,48,73.2296414732588,"Thu Oct 28 11:26:32 2021","The main experiment item","yes","green","no","None","diamond",NA,"pinging_target_expectations 4.0.osexp","C:\Users\etp-cp-ping\Desktop\LocalPC-EXP",75,"no","mono","no",18,"no","white","no","yes",1050,NA,100,"psycho",48,0,48,"C:/Users/etp-cp-ping/Desktop/LocalPC-EXP/subject-8.csv","psycho",26,49,49,"Lentiform Loewenfeld","3.3.8","['vert', 'vert', 'hori', 'vert', 'hori', 'vert', 'hori', 'hori']","no",209,"None","yes",0,NA,2,"legacy",NA,1024,2,48000,-16,"experiment",8,"even","red","no",7,"circle",252366.337,252415.1445,252415.1846,NA,259598.3515,NA,NA,67617.9760999999,1359.90050000009,NA,67617.9980000002,429951.0985,433295.3082,NA,NA,NA,NA,1359.97880000014,260365.8393,NA,NA,429951.1172,260740.7396,429951.041,"New experiment",19,"[0]","dist_absent",56,89,"yes","yes",1680,NA,NA,NA,NA,"R","NR","lp",NA,"Right",NA,NA,NA,NA,"practice",7,"NR","in"
"50",971.509699999879,79731.893299999,79731.893299999,30,30,"n",2,"['8', '4', 'space']","y","#000000","no",425446.9686,1,"neutral","psycho","psycho","psycho",0,"uniform",1,0,0,0,NA,0,0,NA,0,0,0,0,49,49,NA,NA,NA,NA,0,0,0,NA,49,0,49,73.2296414732588,"Thu Oct 28 11:26:32 2021","The main experiment item","yes","red","no","None","circle",NA,"pinging_target_expectations 4.0.osexp","C:\Users\etp-cp-ping\Desktop\LocalPC-EXP",75,"no","mono","no",18,"no","white","no","yes",1050,NA,100,"psycho",49,0,49,"C:/Users/etp-cp-ping/Desktop/LocalPC-EXP/subject-8.csv","psycho",26,50,50,"Lentiform Loewenfeld","3.3.8","['hori', 'vert', 'vert', 'hori', 'hori', 'vert', 'vert', 'hori']","yes",109,"diamond","yes",0,NA,2,"legacy",NA,1024,2,48000,-16,"experiment",8,"even","green","no",6,"diamond",252366.337,252415.1445,252415.1846,NA,259598.3515,NA,NA,67617.9760999999,1359.90050000009,NA,67617.9980000002,433325.8615,436191.167,NA,NA,NA,NA,1359.97880000014,260365.8393,NA,NA,433325.875900001,260740.7396,433325.8117,"New experiment",19,"[0]","dist_absent",56,79,"yes","yes",1680,NA,NA,NA,NA,"NR","R","lp",NA,"Right",NA,"Right",NA,NA,"practice",7,"R","in"
"51",818.803899999708,80550.6971999987,80550.6971999987,31,31,"n",2,"['8', '4', 'space']","y","#000000","no",436587.1509,1,"neutral","psycho","psycho","psycho",0,"uniform",1,0,0,0,NA,0,0,NA,0,0,0,0,50,50,NA,NA,NA,NA,0,0,0,NA,50,0,50,73.2296414732588,"Thu Oct 28 11:26:32 2021","The main experiment item","yes","red","no","None","diamond",NA,"pinging_target_expectations 4.0.osexp","C:\Users\etp-cp-ping\Desktop\LocalPC-EXP",75,"no","mono","no",18,"no","white","no","yes",1050,NA,100,"psycho",50,0,50,"C:/Users/etp-cp-ping/Desktop/LocalPC-EXP/subject-8.csv","psycho",27,51,51,"Lentiform Loewenfeld","3.3.8","['hori', 'hori', 'vert', 'vert', 'hori', 'vert', 'hori', 'vert']","yes",109,"diamond","yes",0,NA,2,"legacy",NA,1024,2,48000,-16,"experiment",8,"even","green","no",5,"circle",252366.337,252415.1445,252415.1846,NA,259598.3515,NA,NA,67617.9760999999,1359.90050000009,NA,67617.9980000002,436222.0471,438959.2928,NA,NA,NA,NA,1359.97880000014,260365.8393,NA,NA,436222.0619,260740.7396,436221.997,"New experiment",19,"[0]","dist_absent",56,69,"yes","yes",1680,NA,NA,NA,NA,"NR","R","lp",NA,"Right",NA,NA,NA,NA,"practice",6,"NR","in"
"52",980.358900000283,81531.056099999,81531.056099999,32,32,"n",2,"['8', '4', 'space']","y","#000000","no",439560.2349,1,"neutral","psycho","psycho","psycho",0,"uniform",1,0,0,0,NA,0,0,NA,0,0,0,0,51,51,NA,NA,NA,NA,0,0,0,NA,51,0,51,73.2296414732588,"Thu Oct 28 11:26:32 2021","The main experiment item","yes","green","no","None","circle",NA,"pinging_target_expectations 4.0.osexp","C:\Users\etp-cp-ping\Desktop\LocalPC-EXP",75,"no","mono","no",18,"no","white","no","yes",1050,NA,100,"psycho",51,0,51,"C:/Users/etp-cp-ping/Desktop/LocalPC-EXP/subject-8.csv","psycho",28,52,52,"Lentiform Loewenfeld","3.3.8","['vert', 'hori', 'hori', 'hori', 'vert', 'vert', 'hori', 'vert']","yes",109,"circles","yes",0,NA,2,"legacy",NA,1024,2,48000,-16,"experiment",8,"even","red","no",1,"diamond",252366.337,252415.1445,252415.1846,NA,259598.3515,NA,NA,67617.9760999999,1359.90050000009,NA,67617.9980000002,438989.8036,441775.2312,NA,NA,NA,NA,1359.97880000014,260365.8393,NA,NA,438989.8177,260740.7396,438989.7526,"New experiment",19,"[0]","dist_absent",56,29,"yes","yes",1680,NA,NA,NA,NA,"NR","R","lp",NA,"Left",NA,NA,NA,NA,"practice",5,"NR","in"
"53",1176.09039999929,82707.1464999983,82707.1464999983,33,33,"n",2,"['8', '4', 'space']","y","#000000","no",442379.7621,1,"neutral","psycho","psycho","psycho",0,"uniform",1,0,0,0,NA,0,0,NA,0,0,0,0,52,52,NA,NA,NA,NA,0,0,0,NA,52,0,52,73.2296414732588,"Thu Oct 28 11:26:32 2021","The main experiment item","yes","green","no","None","diamond",NA,"pinging_target_expectations 4.0.osexp","C:\Users\etp-cp-ping\Desktop\LocalPC-EXP",75,"no","mono","no",18,"no","white","no","yes",1050,NA,100,"psycho",52,0,52,"C:/Users/etp-cp-ping/Desktop/LocalPC-EXP/subject-8.csv","psycho",29,53,53,"Lentiform Loewenfeld","3.3.8","['hori', 'hori', 'hori', 'vert', 'vert', 'hori', 'vert', 'vert']","yes",109,"diamond","yes",0,NA,2,"legacy",NA,1024,2,48000,-16,"experiment",8,"even","red","no",2,"circle",252366.337,252415.1445,252415.1846,NA,259598.3515,NA,NA,67617.9760999999,1359.90050000009,NA,67617.9980000002,441805.7807,444911.3873,NA,NA,NA,NA,1359.97880000014,260365.8393,NA,NA,441805.7953,260740.7396,441805.7312,"New experiment",19,"[0]","dist_absent",56,39,"yes","yes",1680,NA,NA,NA,NA,"NR","R","lp",NA,"Left",NA,"Left",NA,NA,"practice",1,"NR","in"
"54",1481.76439999952,84188.9108999978,84188.9108999978,33,33,"n",2,"['8', '4', 'space']","y","#000000","no",442379.7621,1,"neutral","psycho","psycho","psycho",0,"uniform",0,0,0,0,NA,0,0,NA,0,0,0,0,53,53,NA,NA,NA,NA,0,0,0,NA,53,0,53,73.2296414732588,"Thu Oct 28 11:26:32 2021","The main experiment item","yes","red","no","1","diamond",NA,"pinging_target_expectations 4.0.osexp","C:\Users\etp-cp-ping\Desktop\LocalPC-EXP",75,"no","mono","no",18,"no","white","no","yes",1050,NA,100,"psycho",53,0,53,"C:/Users/etp-cp-ping/Desktop/LocalPC-EXP/subject-8.csv","psycho",29,54,54,"Lentiform Loewenfeld","3.3.8","['hori', 'vert', 'vert', 'hori', 'hori', 'vert', 'vert', 'hori']","no",209,"None","yes",0,NA,2,"legacy",NA,1024,2,48000,-16,"experiment",8,"even","green","no",4,"circle",252366.337,252415.1445,252415.1846,NA,259598.3515,NA,NA,67617.9760999999,1359.90050000009,NA,67617.9980000002,444947.0688,448479.269,NA,NA,NA,NA,1359.97880000014,260365.8393,NA,NA,444947.0832,260740.7396,444947.0145,"New experiment",19,"[0]","dist_present",56,52,"yes","yes",1680,NA,NA,NA,NA,"NR","NR","lp","Left",NA,NA,NA,NA,NA,"practice",2,"NR","in"
"55",1700.29559999966,85889.2064999975,85889.2064999975,34,34,"n",2,"['8', '4', 'space']","y","#000000","no",448824.3859,1,"neutral","psycho","psycho","psycho",0,"uniform",1,0,0,0,NA,0,0,NA,0,0,0,0,54,54,NA,NA,NA,NA,0,0,0,NA,54,0,54,73.2296414732588,"Thu Oct 28 11:26:32 2021","The main experiment item","yes","red","no","None","circle",NA,"pinging_target_expectations 4.0.osexp","C:\Users\etp-cp-ping\Desktop\LocalPC-EXP",75,"no","mono","no",18,"no","white","no","yes",1050,NA,100,"psycho",54,0,54,"C:/Users/etp-cp-ping/Desktop/LocalPC-EXP/subject-8.csv","psycho",30,55,55,"Lentiform Loewenfeld","3.3.8","['vert', 'vert', 'hori', 'hori', 'hori', 'vert', 'vert', 'hori']","no",209,"None","yes",0,NA,2,"legacy",NA,1024,2,48000,-16,"experiment",8,"even","green","no",4,"diamond",252366.337,252415.1445,252415.1846,NA,259598.3515,NA,NA,67617.9760999999,1359.90050000009,NA,67617.9980000002,448511.7124,452047.3142,NA,NA,NA,NA,1359.97880000014,260365.8393,NA,NA,448511.7266,260740.7396,448511.6631,"New experiment",19,"[0]","dist_absent",56,59,"yes","yes",1680,NA,NA,NA,NA,"R","NR","lp",NA,NA,NA,NA,NA,NA,"practice",4,"NR","in"
"56",1914.97840000008,87804.1848999975,87804.1848999975,35,35,"n",2,"['8', '4', 'space']","y","#000000","no",454020.7912,1,"neutral","psycho","psycho","psycho",0,"uniform",1,0,0,0,NA,0,0,NA,0,0,0,0,55,55,NA,NA,NA,NA,0,0,0,NA,55,0,55,73.2296414732588,"Thu Oct 28 11:26:32 2021","The main experiment item","yes","green","no","5","diamond",NA,"pinging_target_expectations 4.0.osexp","C:\Users\etp-cp-ping\Desktop\LocalPC-EXP",75,"no","mono","no",18,"no","white","no","yes",1050,NA,100,"psycho",55,0,55,"C:/Users/etp-cp-ping/Desktop/LocalPC-EXP/subject-8.csv","psycho",32,56,56,"Lentiform Loewenfeld","3.3.8","['hori', 'hori', 'vert', 'vert', 'vert', 'hori', 'vert', 'hori']","no",209,"None","yes",0,NA,2,"legacy",NA,1024,2,48000,-16,"experiment",8,"even","red","no",3,"circle",252366.337,252415.1445,252415.1846,NA,259598.3515,NA,NA,67617.9760999999,1359.90050000009,NA,67617.9980000002,452077.9843,455903.1786,NA,NA,NA,NA,1359.97880000014,260365.8393,NA,NA,452077.9991,260740.7396,452077.935,"New experiment",19,"[0]","dist_present",56,46,"yes","yes",1680,NA,NA,NA,NA,"NR","NR","lp",NA,NA,NA,NA,NA,NA,"practice",4,"R","in"
"57",1268.4753000004,1268.4753000004,89072.6601999979,1,36,"n",2,"['8', '4', 'space']","y","#000000","no",630352.2833,2,"bias","psycho","psycho","psycho",0,"uniform",1,0,1,1,NA,1,0,NA,0,0,1,0,56,56,NA,NA,NA,NA,0,1,1,NA,56,1,56,73.2296414732588,"Thu Oct 28 11:26:32 2021","The main experiment item","yes","green","no","5","diamond",NA,"pinging_target_expectations 4.0.osexp","C:\Users\etp-cp-ping\Desktop\LocalPC-EXP",75,"no","mono","no",18,"no","white","no","yes",1050,NA,2,"psycho",0,1,0,"C:/Users/etp-cp-ping/Desktop/LocalPC-EXP/subject-8.csv","psycho",1,57,1,"Lentiform Loewenfeld","3.3.8","['hori', 'hori', 'vert', 'vert', 'vert', 'hori', 'hori', 'vert']","no",202,"None","no",0,NA,2,"legacy",NA,1024,2,48000,-16,"experiment",8,"even","red","no",7,"circle",252366.337,597460.4843,597460.6262,NA,628450.939800001,NA,NA,67617.9760999999,1359.90050000009,456440.1812,67617.9980000002,629671.0834,632798.9816,NA,NA,NA,NA,1359.97880000014,629291.4417,455932.9751,NA,629671.1007,629666.6687,629671.0054,"New experiment",19,"[0]","dist_present",56,86,"yes","yes",1680,15.0187024204245,8.04626765583537,"more toward","False","NR","NR","lp",NA,NA,NA,NA,3,-3,"first",999,"NR","in"
"58",2000.54720000026,3269.02250000066,91073.2073999982,1,36,"n",2,"['8', '4', 'space']","y","#000000","no",630352.2833,2,"bias","psycho","psycho","psycho",0,"uniform",0,0,1,1,NA,1,0,NA,0,0,1,0,57,57,NA,NA,NA,NA,0,1,1,NA,57,1,57,73.2296414732588,"Thu Oct 28 11:26:32 2021","The main experiment item","yes","red","no","None","diamond",NA,"pinging_target_expectations 4.0.osexp","C:\Users\etp-cp-ping\Desktop\LocalPC-EXP",75,"no","mono","no",18,"no","white","no","yes",1050,NA,2,"psycho",1,1,1,"C:/Users/etp-cp-ping/Desktop/LocalPC-EXP/subject-8.csv","psycho",1,58,2,"Lentiform Loewenfeld","3.3.8","['vert', 'hori', 'hori', 'vert', 'vert', 'hori', 'hori', 'vert']","no",202,"None","no",0,NA,2,"legacy",NA,1024,2,48000,-16,"experiment",8,"even","green","no",6,"circle",252366.337,597460.4843,597460.6262,NA,628450.939800001,NA,NA,67617.9760999999,1359.90050000009,456440.1812,67617.9980000002,632830.5566,636762.8077,NA,NA,NA,NA,1359.97880000014,629291.4417,455932.9751,NA,632830.5707,629666.6687,632830.5071,"New experiment",19,"[0]","dist_absent",56,79,"yes","yes",1680,-14.5796725795754,17.1052676558354,"more toward","False","NR","NR","lp",NA,"Right",NA,"Right",4,NA,"first",7,"NR","in"
"59",1024.99439999973,4294.0169000004,92098.2017999979,1,36,"n",2,"['8', '4', 'space']","y","#000000","no",630352.2833,2,"bias","psycho","psycho","psycho",0,"uniform",0,0,1,1,NA,1,0,NA,0,0,1,0,58,58,NA,NA,NA,NA,0,1,1,NA,58,1,58,73.2296414732588,"Thu Oct 28 11:26:32 2021","The main experiment item","yes","green","no","0","circle",NA,"pinging_target_expectations 4.0.osexp","C:\Users\etp-cp-ping\Desktop\LocalPC-EXP",75,"no","mono","no",18,"no","white","no","yes",1050,NA,2,"psycho",2,1,2,"C:/Users/etp-cp-ping/Desktop/LocalPC-EXP/subject-8.csv","psycho",1,59,3,"Lentiform Loewenfeld","3.3.8","['hori', 'hori', 'vert', 'hori', 'vert', 'vert', 'hori', 'vert']","yes",102,"circles","no",0,NA,2,"legacy",NA,1024,2,48000,-16,"experiment",8,"even","red","no",6,"diamond",252366.337,597460.4843,597460.6262,NA,628450.939800001,NA,NA,67617.9760999999,1359.90050000009,456440.1812,67617.9980000002,636793.0282,639982.9132,NA,NA,NA,NA,1359.97880000014,629291.4417,455932.9751,NA,636793.0425,629666.6687,636792.9786,"New experiment",19,"[0]","dist_present",56,71,"yes","yes",1680,-29.0344225795755,2.67420515583533,"more away","False","R","NR","lp",NA,"Right",NA,"Right",4,2,"first",6,"NR","in"
"60",1999.98999999929,6294.00689999969,94098.1917999972,1,36,"n",2,"['8', '4', 'space']","y","#000000","no",630352.2833,2,"bias","psycho","psycho","psycho",0,"uniform",0,0,1,1,NA,1,0,NA,0,0,1,0,59,59,NA,NA,NA,NA,0,1,1,NA,59,1,59,73.2296414732588,"Thu Oct 28 11:26:32 2021","The main experiment item","yes","green","no","4","diamond",NA,"pinging_target_expectations 4.0.osexp","C:\Users\etp-cp-ping\Desktop\LocalPC-EXP",75,"no","mono","no",18,"no","white","no","yes",1050,NA,2,"psycho",3,1,3,"C:/Users/etp-cp-ping/Desktop/LocalPC-EXP/subject-8.csv","psycho",1,60,4,"Lentiform Loewenfeld","3.3.8","['vert', 'hori', 'hori', 'vert', 'vert', 'hori', 'hori', 'vert']","no",202,"None","no",0,NA,2,"legacy",NA,1024,2,48000,-16,"experiment",8,"even","red","no",3,"circle",252366.337,597460.4843,597460.6262,NA,628450.939800001,NA,NA,67617.9760999999,1359.90050000009,456440.1812,67617.9980000002,640013.3343,644152.9378,NA,NA,NA,NA,1359.97880000014,629291.4417,455932.9751,NA,640013.3484,629666.6687,640013.2843,"New experiment",19,"[0]","dist_present",56,45,"yes","yes",1680,-6.37042257957555,43.0522051558354,"more toward","False","NR","NR","lp",NA,"Left",NA,NA,-1,-2,"first",6,"R","in"
"61",1020.75479999988,7314.76169999957,95118.9465999971,1,36,"n",2,"['8', '4', 'space']","y","#000000","no",644676.5798,2,"bias","psycho","psycho","psycho",0,"uniform",0,0,1,1,NA,1,0,NA,0,0,1,0,60,60,NA,NA,NA,NA,0,1,1,NA,60,1,60,73.2296414732588,"Thu Oct 28 11:26:32 2021","The main experiment item","yes","green","no","4","circle",NA,"pinging_target_expectations 4.0.osexp","C:\Users\etp-cp-ping\Desktop\LocalPC-EXP",75,"no","mono","no",18,"no","white","no","yes",1050,NA,2,"psycho",4,1,4,"C:/Users/etp-cp-ping/Desktop/LocalPC-EXP/subject-8.csv","psycho",2,61,5,"Lentiform Loewenfeld","3.3.8","['hori', 'hori', 'vert', 'hori', 'vert', 'vert', 'hori', 'vert']","yes",102,"diamond","no",0,NA,2,"legacy",NA,1024,2,48000,-16,"experiment",8,"even","red","no",7,"diamond",252366.337,597460.4843,597460.6262,NA,628450.939800001,NA,NA,67617.9760999999,1359.90050000009,456440.1812,67617.9980000002,644183.6544,647070.9639,NA,NA,NA,NA,1359.97880000014,629291.4417,455932.9751,NA,644183.6692,629666.6687,644183.6046,"New experiment",19,"[0]","dist_present",56,85,"yes","yes",1680,10.4302649204245,15.5603301558354,"more toward","False","NR","R","lp",NA,"Right",NA,NA,3,-2,"first",3,"NR","in"
"62",879.419100000639,8194.18080000021,95998.3656999978,2,37,"n",2,"['8', '4', 'space']","y","#000000","no",644676.5798,2,"bias","psycho","psycho","psycho",0,"uniform",1,0,1,1,NA,1,0,NA,0,0,1,0,61,61,NA,NA,NA,NA,0,1,1,NA,61,1,61,73.2296414732588,"Thu Oct 28 11:26:32 2021","The main experiment item","yes","green","no","6","circle",NA,"pinging_target_expectations 4.0.osexp","C:\Users\etp-cp-ping\Desktop\LocalPC-EXP",75,"no","mono","no",18,"no","white","no","yes",1050,NA,2,"psycho",5,1,5,"C:/Users/etp-cp-ping/Desktop/LocalPC-EXP/subject-8.csv","psycho",2,62,6,"Lentiform Loewenfeld","3.3.8","['vert', 'hori', 'hori', 'vert', 'hori', 'vert', 'hori', 'vert']","no",202,"None","no",0,NA,2,"legacy",NA,1024,2,48000,-16,"experiment",8,"even","red","yes",2,"diamond",252366.337,597460.4843,597460.6262,NA,628450.939800001,NA,NA,67617.9760999999,1359.90050000009,456440.1812,67617.9980000002,647103.766,649790.9683,NA,NA,NA,NA,1359.97880000014,629291.4417,455932.9751,NA,647103.7804,629666.6687,647103.7155,"New experiment",19,"[0]","dist_present",56,37,"yes","yes",1680,7.20557742042453,16.2225176558354,"more toward","False","NR","NR","lp",NA,NA,NA,NA,0,4,"first",7,"NR","ex"
"63",949.992400000105,9144.17320000031,96948.3580999979,3,38,"n",2,"['8', '4', 'space']","y","#000000","no",650504.1816,2,"bias","psycho","psycho","psycho",0,"uniform",1,0,1,1,NA,1,0,NA,0,0,1,0,62,62,NA,NA,NA,NA,0,1,1,NA,62,1,62,73.2296414732588,"Thu Oct 28 11:26:32 2021","The main experiment item","yes","green","no","4","diamond",NA,"pinging_target_expectations 4.0.osexp","C:\Users\etp-cp-ping\Desktop\LocalPC-EXP",75,"no","mono","no",18,"no","white","no","yes",1050,NA,2,"psycho",6,1,6,"C:/Users/etp-cp-ping/Desktop/LocalPC-EXP/subject-8.csv","psycho",3,63,7,"Lentiform Loewenfeld","3.3.8","['hori', 'vert', 'hori', 'vert', 'vert', 'hori', 'vert', 'hori']","yes",102,"diamond","no",0,NA,2,"legacy",NA,1024,2,48000,-16,"experiment",8,"even","red","yes",2,"circle",252366.337,597460.4843,597460.6262,NA,628450.939800001,NA,NA,67617.9760999999,1359.90050000009,456440.1812,67617.9980000002,649821.5703,652558.8607,NA,NA,NA,NA,1359.97880000014,629291.4417,455932.9751,NA,649821.5846,629666.6687,649821.5194,"New experiment",19,"[0, 83.5512347200374, 101.2563631898091, 121.13382798470111, 141.6466080334577, 161.74950345418847, 175.91435241960156, 196.52915931593085, 219.41932689630087, 239.389375037531, 261.9256826234763, 284.380004411669, 307.12464451435113, 329.87312048743496, 361.04872958069893, 390.07008445736386, 421.803603605575, 452.771843819989, 486.7056990324896, 523.7586588494066, 553.7074027687022, 591.5991303536194, 627.3383200846913, 665.625962752387, 703.0610996779537, 738.2578751342613, 775.7262048069678, 806.4237067507198, 831.802616089773, 858.4705567044897, 868.133562287633, 879.2517411839459, 901.542371003087, 922.2048034992926, 927.0584786500335, 938.2426581715391, 950.2769936796313]","dist_present",56,35,"yes","no",1680,14.4348274204244,11.9055801558354,"more toward","False","R","NR","hp",NA,"Left",NA,"Left",0,-2,"first",2,"NR","ex"
"64",1481.04099999997,10625.2142000003,98429.3990999978,4,39,"n",2,"['8', '4', 'space']","y","#000000","no",650504.1816,2,"bias","psycho","psycho","psycho",0,"uniform",1,0,1,1,NA,1,0,NA,0,0,1,0,63,63,NA,NA,NA,NA,0,1,1,NA,63,1,63,73.2296414732588,"Thu Oct 28 11:26:32 2021","The main experiment item","yes","red","no","1","diamond",NA,"pinging_target_expectations 4.0.osexp","C:\Users\etp-cp-ping\Desktop\LocalPC-EXP",75,"no","mono","no",18,"no","white","no","yes",1050,NA,2,"psycho",7,1,7,"C:/Users/etp-cp-ping/Desktop/LocalPC-EXP/subject-8.csv","psycho",3,64,8,"Lentiform Loewenfeld","3.3.8","['hori', 'hori', 'vert', 'vert', 'hori', 'vert', 'vert', 'hori']","no",202,"None","no",0,NA,2,"legacy",NA,1024,2,48000,-16,"experiment",8,"even","green","no",3,"circle",252366.337,597460.4843,597460.6262,NA,628450.939800001,NA,NA,67617.9760999999,1359.90050000009,456440.1812,67617.9980000002,652589.9639,655943.7321,NA,NA,NA,NA,1359.97880000014,629291.4417,455932.9751,NA,652589.9784,629666.6687,652589.9152,"New experiment",19,"[0]","dist_present",56,42,"yes","yes",1680,7.4830774204245,31.6825801558354,"more toward","False","NR","NR","hp",NA,NA,NA,NA,-1,1,"first",2,"R","in"
"65",1464.30789999978,12089.5221000001,99893.7069999976,4,39,"n",2,"['8', '4', 'space']","y","#000000","no",656437.7723,2,"bias","psycho","psycho","psycho",0,"uniform",0,0,1,1,NA,1,0,NA,0,0,1,0,64,64,NA,NA,NA,NA,0,1,1,NA,64,1,64,73.2296414732588,"Thu Oct 28 11:26:32 2021","The main experiment item","yes","red","no","5","diamond",NA,"pinging_target_expectations 4.0.osexp","C:\Users\etp-cp-ping\Desktop\LocalPC-EXP",75,"no","mono","no",18,"no","white","no","yes",1050,NA,2,"psycho",8,1,8,"C:/Users/etp-cp-ping/Desktop/LocalPC-EXP/subject-8.csv","psycho",4,65,9,"Lentiform Loewenfeld","3.3.8","['vert', 'vert', 'hori', 'hori', 'hori', 'vert', 'hori', 'vert']","no",202,"None","no",0,NA,2,"legacy",NA,1024,2,48000,-16,"experiment",8,"even","green","no",4,"circle",252366.337,597460.4843,597460.6262,NA,628450.939800001,NA,NA,67617.9760999999,1359.90050000009,456440.1812,67617.9980000002,655975.4399,659279.0081,NA,NA,NA,NA,1359.97880000014,629291.4417,455932.9751,NA,655975.454,629666.6687,655975.3901,"New experiment",19,"[0, 73.3179693452256, 74.56769878211547, 74.42647665479564, 74.05198872206034, 73.7133231099168, 73.24618747411317, 81.21408456504685, 94.45952056511493, 111.1150904476818, 129.46400213619765, 147.04817282726478, 168.96153408394468, 188.50026838612519, 208.84417967536825, 230.09862566773597, 252.36205474437966, 273.91086320452223, 297.5803203679861, 320.9291987804849, 345.2392509167164, 369.7609261170119, 396.9588677410077, 426.4375535928539, 454.969893497645, 487.0699588027029, 514.4569329870461, 542.0934739525608, 576.0449518592299, 609.5830444020417, 641.4850653730609, 673.090965426857, 702.6195627791757, 727.2323614643656, 752.7628087098608, 780.0368274887873, 815.3271556870787, 836.2356127312445, 854.3909291961032, 862.278841999423, 863.4344763451408, 872.4271168436377, 883.572195440568, 896.2670370128218, 909.3599117224446, 913.121900362639, 922.4528447043384, 928.4785101319554, 936.5779293570769, 936.5643719716659, 950.2257888290867]","dist_present",56,56,"yes","no",1680,-2.49192257957548,35.8193926558354,"more toward","False","NR","NR","lp","Right",NA,NA,NA,-2,-3,"first",3,"NR","in"
"66",1334.78699999978,13424.3090999998,101228.493999997,5,40,"n",2,"['8', '4', 'space']","y","#000000","no",659685.3417,2,"bias","psycho","psycho","psycho",0,"uniform",1,0,1,1,NA,1,0,NA,0,0,1,0,65,65,NA,NA,NA,NA,0,1,1,NA,65,1,65,73.2296414732588,"Thu Oct 28 11:26:32 2021","The main experiment item","yes","green","no","6","circle",NA,"pinging_target_expectations 4.0.osexp","C:\Users\etp-cp-ping\Desktop\LocalPC-EXP",75,"no","mono","no",18,"no","white","no","yes",1050,NA,2,"psycho",9,1,9,"C:/Users/etp-cp-ping/Desktop/LocalPC-EXP/subject-8.csv","psycho",5,66,10,"Lentiform Loewenfeld","3.3.8","['vert', 'hori', 'hori', 'vert', 'vert', 'hori', 'vert', 'hori']","no",202,"None","no",0,NA,2,"legacy",NA,1024,2,48000,-16,"experiment",8,"even","red","no",1,"diamond",252366.337,597460.4843,597460.6262,NA,628450.939800001,NA,NA,67617.9760999999,1359.90050000009,456440.1812,67617.9980000002,659309.8159,662526.9354,NA,NA,NA,NA,1359.97880000014,629291.4417,455932.9751,NA,659309.8319,629666.6687,659309.7658,"New experiment",19,"[0]","dist_present",56,27,"yes","no",1680,20.1599524204245,20.4408301558354,"more toward","False","NR","NR","lp",NA,NA,NA,NA,1,4,"first",4,"NR","in"
"67",837.75050000078,14262.0596000006,102066.244499998,6,41,"n",2,"['8', '4', 'space']","y","#000000","no",662848.4211,2,"bias","psycho","psycho","psycho",0,"uniform",1,0,1,1,NA,1,0,NA,0,0,1,0,66,66,NA,NA,NA,NA,0,1,1,NA,66,1,66,73.2296414732588,"Thu Oct 28 11:26:32 2021","The main experiment item","yes","red","yes","2","circle",NA,"pinging_target_expectations 4.0.osexp","C:\Users\etp-cp-ping\Desktop\LocalPC-EXP",75,"no","mono","no",18,"no","white","no","yes",1050,NA,2,"psycho",10,1,10,"C:/Users/etp-cp-ping/Desktop/LocalPC-EXP/subject-8.csv","psycho",6,67,11,"Lentiform Loewenfeld","3.3.8","['hori', 'vert', 'vert', 'hori', 'hori', 'vert', 'vert', 'hori']","no",202,"None","no",0,NA,2,"legacy",NA,1024,2,48000,-16,"experiment",8,"even","green","no",5,"diamond",252366.337,597460.4843,597460.6262,NA,628450.939800001,NA,NA,67617.9760999999,1359.90050000009,456440.1812,67617.9980000002,662559.0064,665246.8677,NA,NA,NA,NA,1359.97880000014,629291.4417,455932.9751,NA,662559.0211,629666.6687,662558.9565,"New experiment",19,"[0]","dist_present",56,63,"yes","yes",1680,2.65145242042446,28.2103301558354,"more toward","False","NR","NR","lp",NA,NA,NA,NA,-3,0,"first",1,"NR","in"
"68",1336.50099999981,15598.5606000004,103402.745499998,6,41,"n",2,"['8', '4', 'space']","y","#000000","no",662848.4211,2,"bias","psycho","psycho","psycho",0,"uniform",0,0,1,1,NA,1,0,NA,0,0,1,0,67,67,NA,NA,NA,NA,0,1,1,NA,67,1,67,73.2296414732588,"Thu Oct 28 11:26:32 2021","The main experiment item","yes","green","no","6","diamond",NA,"pinging_target_expectations 4.0.osexp","C:\Users\etp-cp-ping\Desktop\LocalPC-EXP",75,"no","mono","no",18,"no","white","no","yes",1050,NA,2,"psycho",11,1,11,"C:/Users/etp-cp-ping/Desktop/LocalPC-EXP/subject-8.csv","psycho",6,68,12,"Lentiform Loewenfeld","3.3.8","['vert', 'hori', 'hori', 'hori', 'vert', 'vert', 'vert', 'hori']","no",202,"None","no",0,NA,2,"legacy",NA,1024,2,48000,-16,"experiment",8,"even","red","no",5,"circle",252366.337,597460.4843,597460.6262,NA,628450.939800001,NA,NA,67617.9760999999,1359.90050000009,456440.1812,67617.9980000002,665277.4937,668510.9682,NA,NA,NA,NA,1359.97880000014,629291.4417,455932.9751,NA,665277.508,629666.6687,665277.4438,"New experiment",19,"[0]","dist_present",56,67,"yes","yes",1680,-15.2291100795755,22.8253926558354,"more toward","False","R","NR","lp",NA,NA,NA,NA,-3,4,"first",5,"NR","in"
"69",1789.8531999999,17388.4138000003,105192.598699998,6,41,"n",2,"['8', '4', 'space']","y","#000000","no",669291.5154,2,"bias","psycho","psycho","psycho",0,"uniform",0,0,1,1,NA,1,0,NA,0,0,1,0,68,68,NA,NA,NA,NA,0,1,1,NA,68,1,68,73.2296414732588,"Thu Oct 28 11:26:32 2021","The main experiment item","yes","green","no","0","diamond",NA,"pinging_target_expectations 4.0.osexp","C:\Users\etp-cp-ping\Desktop\LocalPC-EXP",75,"no","mono","no",18,"no","white","no","yes",1050,NA,2,"psycho",12,1,12,"C:/Users/etp-cp-ping/Desktop/LocalPC-EXP/subject-8.csv","psycho",7,69,13,"Lentiform Loewenfeld","3.3.8","['vert', 'hori', 'vert', 'hori', 'hori', 'vert', 'vert', 'hori']","no",202,"None","no",0,NA,2,"legacy",NA,1024,2,48000,-16,"experiment",8,"even","red","yes",2,"circle",252366.337,597460.4843,597460.6262,NA,628450.939800001,NA,NA,67617.9760999999,1359.90050000009,456440.1812,67617.9980000002,668541.5607,672286.9564,NA,NA,NA,NA,1359.97880000014,629291.4417,455932.9751,NA,668541.5753,629666.6687,668541.5097,"New experiment",19,"[0]","dist_present",56,31,"yes","yes",1680,-27.4529225795755,35.1638926558354,"more away","False","NR","NR","lp",NA,"Left",NA,"Left",0,2,"first",5,"R","ex"
"70",1084.62260000035,18473.0364000007,106277.221299998,7,42,"n",2,"['8', '4', 'space']","y","#000000","no",673259.1071,2,"bias","psycho","psycho","psycho",0,"uniform",1,0,1,1,NA,1,0,NA,0,0,1,0,69,69,NA,NA,NA,NA,0,1,1,NA,69,1,69,73.2296414732588,"Thu Oct 28 11:26:32 2021","The main experiment item","yes","red","no","None","diamond",NA,"pinging_target_expectations 4.0.osexp","C:\Users\etp-cp-ping\Desktop\LocalPC-EXP",75,"no","mono","no",18,"no","white","no","yes",1050,NA,2,"psycho",13,1,13,"C:/Users/etp-cp-ping/Desktop/LocalPC-EXP/subject-8.csv","psycho",8,70,14,"Lentiform Loewenfeld","3.3.8","['vert', 'vert', 'hori', 'hori', 'hori', 'vert', 'hori', 'vert']","yes",102,"circles","no",0,NA,2,"legacy",NA,1024,2,48000,-16,"experiment",8,"even","green","no",5,"circle",252366.337,597460.4843,597460.6262,NA,628450.939800001,NA,NA,67617.9760999999,1359.90050000009,456440.1812,67617.9980000002,672317.5416,675198.8676,NA,NA,NA,NA,1359.97880000014,629291.4417,455932.9751,NA,672317.556,629666.6687,672317.4902,"New experiment",19,"[0]","dist_absent",56,69,"yes","yes",1680,NA,NA,"no hp","True","NR","NR","hp",NA,"Right",NA,NA,-3,NA,"first",2,"NR","in"
"71",2000.03250000009,20473.0689000008,108277.253799998,7,42,"n",2,"['8', '4', 'space']","y","#000000","no",673259.1071,2,"bias","psycho","psycho","psycho",0,"uniform",0,0,1,1,NA,1,0,NA,0,0,1,0,70,70,NA,NA,NA,NA,0,1,1,NA,70,1,70,73.2296414732588,"Thu Oct 28 11:26:32 2021","The main experiment item","yes","red","no","7","circle",NA,"pinging_target_expectations 4.0.osexp","C:\Users\etp-cp-ping\Desktop\LocalPC-EXP",75,"no","mono","no",18,"no","white","no","yes",1050,NA,2,"psycho",14,1,14,"C:/Users/etp-cp-ping/Desktop/LocalPC-EXP/subject-8.csv","psycho",8,71,15,"Lentiform Loewenfeld","3.3.8","['hori', 'vert', 'vert', 'hori', 'hori', 'vert', 'hori', 'vert']","yes",102,"circles","no",0,NA,2,"legacy",NA,1024,2,48000,-16,"experiment",8,"even","green","yes",2,"diamond",252366.337,597460.4843,597460.6262,NA,628450.939800001,NA,NA,67617.9760999999,1359.90050000009,456440.1812,67617.9980000002,675229.5769,679143.9626,NA,NA,NA,NA,1359.97880000014,629291.4417,455932.9751,NA,675229.5912,629666.6687,675229.5269,"New experiment",19,"[0]","dist_present",56,38,"yes","yes",1680,-3.53154757957542,33.8377051558353,"more toward","False","NR","NR","lp",NA,NA,NA,NA,0,3,"first",5,"NR","ex"
"72",912.166000000085,21385.2349000009,109189.419799998,8,43,"n",2,"['8', '4', 'space']","y","#000000","no",680116.2439,2,"bias","psycho","psycho","psycho",0,"uniform",1,0,1,1,NA,1,0,NA,0,0,1,0,71,71,NA,NA,NA,NA,0,1,1,NA,71,1,71,73.2296414732588,"Thu Oct 28 11:26:32 2021","The main experiment item","yes","red","no","None","diamond",NA,"pinging_target_expectations 4.0.osexp","C:\Users\etp-cp-ping\Desktop\LocalPC-EXP",75,"no","mono","no",18,"no","white","no","yes",1050,NA,2,"psycho",15,1,15,"C:/Users/etp-cp-ping/Desktop/LocalPC-EXP/subject-8.csv","psycho",9,72,16,"Lentiform Loewenfeld","3.3.8","['hori', 'vert', 'hori', 'vert', 'vert', 'hori', 'hori', 'vert']","no",202,"None","no",0,NA,2,"legacy",NA,1024,2,48000,-16,"experiment",8,"even","green","yes",2,"circle",252366.337,597460.4843,597460.6262,NA,628450.939800001,NA,NA,67617.9760999999,1359.90050000009,456440.1812,67617.9980000002,679174.2386,682110.8814,NA,NA,NA,NA,1359.97880000014,629291.4417,455932.9751,NA,679174.253,629666.6687,679174.1886,"New experiment",19,"[0]","dist_absent",56,39,"yes","yes",1680,-17.5536725795754,18.1207676558354,"more toward","False","R","NR","hp",NA,"Left",NA,"Left",0,NA,"first",2,"NR","ex"
"73",824.314999999828,22209.5499000007,110013.734799998,9,44,"n",2,"['8', '4', 'space']","y","#000000","no",683086.771,2,"bias","psycho","psycho","psycho",0,"uniform",1,0,1,1,NA,1,0,NA,0,0,1,0,72,72,NA,NA,NA,NA,0,1,1,NA,72,1,72,73.2296414732588,"Thu Oct 28 11:26:32 2021","The main experiment item","yes","green","no","None","circle",NA,"pinging_target_expectations 4.0.osexp","C:\Users\etp-cp-ping\Desktop\LocalPC-EXP",75,"no","mono","no",18,"no","white","no","yes",1050,NA,2,"psycho",16,1,16,"C:/Users/etp-cp-ping/Desktop/LocalPC-EXP/subject-8.csv","psycho",10,73,17,"Lentiform Loewenfeld","3.3.8","['vert', 'hori', 'vert', 'vert', 'hori', 'hori', 'vert', 'hori']","yes",102,"circles","no",0,NA,2,"legacy",NA,1024,2,48000,-16,"experiment",8,"even","red","no",3,"diamond",252366.337,597460.4843,597460.6262,NA,628450.939800001,NA,NA,67617.9760999999,1359.90050000009,456440.1812,67617.9980000002,682141.5012,685070.7788,NA,NA,NA,NA,1359.97880000014,629291.4417,455932.9751,NA,682141.5156,629666.6687,682141.4513,"New experiment",19,"[0, 79.92852089304311, 90.55988044272657, 107.1894000150534, 121.57669483519828, 140.61611982378486, 159.5396142518376, 178.29292758644226, 199.93942953654647, 221.2747161335881, 241.6730500290678, 260.3142981208536, 283.27943586102225, 300.4264032821734, 324.33277602563294, 344.12444877206343, 368.39144112153605, 391.96617952771766, 418.9387745119226, 448.2731673117844, 474.6583977305501, 501.53429763000145, 532.3154006957448, 555.812368172285, 581.8032932475478, 609.6724382029239, 636.2478254870596, 663.0683527104966, 688.9025855113474, 715.5269314592958, 741.0676213471903, 763.981710423952, 784.1816857259738, 801.905651745739, 812.8901462186259, 817.7224742494114, 835.3481039938931, 862.8542071875938, 875.3678456777943, 886.42507137827, 886.7262857884648]","dist_absent",56,49,"yes","no",1680,-17.7596725795754,11.9542676558353,"more toward","False","NR","R","hp",NA,"Left",NA,NA,-1,NA,"first",2,"R","in"
"74",2000.48850000068,24210.0384000014,112014.223299999,9,44,"n",2,"['8', '4', 'space']","y","#000000","no",686330.3472,2,"bias","psycho","psycho","psycho",0,"uniform",0,0,1,1,NA,1,0,NA,0,0,1,0,73,73,NA,NA,NA,NA,0,1,1,NA,73,1,73,73.2296414732588,"Thu Oct 28 11:26:32 2021","The main experiment item","yes","red","yes","2","diamond",NA,"pinging_target_expectations 4.0.osexp","C:\Users\etp-cp-ping\Desktop\LocalPC-EXP",75,"no","mono","no",18,"no","white","no","yes",1050,NA,2,"psycho",17,1,17,"C:/Users/etp-cp-ping/Desktop/LocalPC-EXP/subject-8.csv","psycho",11,74,18,"Lentiform Loewenfeld","3.3.8","['hori', 'vert', 'hori', 'hori', 'vert', 'hori', 'vert', 'vert']","no",202,"None","no",0,NA,2,"legacy",NA,1024,2,48000,-16,"experiment",8,"even","green","no",0,"circle",252366.337,597460.4843,597460.6262,NA,628450.939800001,NA,NA,67617.9760999999,1359.90050000009,456440.1812,67617.9980000002,685101.7146,689163.8539,NA,NA,NA,NA,1359.97880000014,629291.4417,455932.9751,NA,685101.729,629666.6687,685101.6637,"New experiment",19,"[0, 74.09886346890188, 74.47231009378127, 74.4153609630859, 74.8772600804088, 75.15118315496163, 74.58771686628111, 75.28462655229406, 76.1210966646111, 76.62510504810685, 76.93902304164097, 77.67059550596476, 77.89382288759305, 77.93105778870932, 78.17991905632219, 77.97053448609687, 77.38558838408531, 78.34414000077915, 75.20671390836908, 74.30591161527967]","dist_present",56,13,"yes","yes",1680,NA,NA,"no hp","True","NR","NR","lp","Left",NA,"Left",NA,2,0,"first",3,"NR","in"
"75",2000.75850000035,26210.7969000017,114014.981799999,9,44,"n",2,"['8', '4', 'space']","y","#000000","no",686330.3472,2,"bias","psycho","psycho","psycho",0,"uniform",0,0,1,1,NA,1,0,NA,0,0,1,0,74,74,NA,NA,NA,NA,0,1,1,NA,74,1,74,73.2296414732588,"Thu Oct 28 11:26:32 2021","The main experiment item","yes","red","no","1","circle",NA,"pinging_target_expectations 4.0.osexp","C:\Users\etp-cp-ping\Desktop\LocalPC-EXP",75,"no","mono","no",18,"no","white","no","yes",1050,NA,2,"psycho",18,1,18,"C:/Users/etp-cp-ping/Desktop/LocalPC-EXP/subject-8.csv","psycho",11,75,19,"Lentiform Loewenfeld","3.3.8","['hori', 'hori', 'hori', 'vert', 'vert', 'hori', 'vert', 'vert']","no",202,"None","no",0,NA,2,"legacy",NA,1024,2,48000,-16,"experiment",8,"even","green","no",0,"diamond",252366.337,597460.4843,597460.6262,NA,628450.939800001,NA,NA,67617.9760999999,1359.90050000009,456440.1812,67617.9980000002,689194.196,693081.0145,NA,NA,NA,NA,1359.97880000014,629291.4417,455932.9751,NA,689194.2104,629666.6687,689194.1458,"New experiment",19,"[0]","dist_present",56,12,"yes","yes",1680,-15.6109850795754,22.3382676558354,"more toward","False","R","NR","lp","Left",NA,NA,NA,2,1,"first",0,"NR","in"
"76",1603.51699999953,27814.3139000012,115618.498799999,10,45,"n",2,"['8', '4', 'space']","y","#000000","no",694591.5031,2,"bias","psycho","psycho","psycho",0,"uniform",1,0,1,1,NA,1,0,NA,0,0,1,0,75,75,NA,NA,NA,NA,0,1,1,NA,75,1,75,73.2296414732588,"Thu Oct 28 11:26:32 2021","The main experiment item","yes","red","no","None","circle",NA,"pinging_target_expectations 4.0.osexp","C:\Users\etp-cp-ping\Desktop\LocalPC-EXP",75,"no","mono","no",18,"no","white","no","yes",1050,NA,2,"psycho",19,1,19,"C:/Users/etp-cp-ping/Desktop/LocalPC-EXP/subject-8.csv","psycho",13,76,20,"Lentiform Loewenfeld","3.3.8","['vert', 'hori', 'hori', 'vert', 'vert', 'hori', 'vert', 'hori']","yes",102,"diamond","no",0,NA,2,"legacy",NA,1024,2,48000,-16,"experiment",8,"even","green","no",4,"diamond",252366.337,597460.4843,597460.6262,NA,628450.939800001,NA,NA,67617.9760999999,1359.90050000009,456440.1812,67617.9980000002,693112.8321,696862.8543,NA,NA,NA,NA,1359.97880000014,629291.4417,455932.9751,NA,693112.8464,629666.6687,693112.7828,"New experiment",19,"[0, 77.50163029094712, 94.26498737197407, 109.74629834304207, 129.2477968600038, 150.2459379488109, 168.80250356544252, 188.3479682361147, 212.8215021384392, 235.9162987163032, 261.0460418430335, 286.86057177939733, 311.1546720702954, 335.3729818254257, 359.30066646999353, 384.09123816593444, 408.9471658993018, 436.4906453846423, 460.2601240462942, 487.1974963845767, 515.2791210242045, 546.0204122339886, 578.2388672956616, 606.7591187498017, 632.2758067225107, 660.0018166145991, 704.2061745049812, 728.2659148011346, 760.1369082151975, 785.9876270638503, 809.1628124673557, 828.4080392709919, 838.5074652979258, 851.7120967911127, 873.9306124772182, 891.9675763478524, 904.4800179285522, 907.904632281586, 84.74317666462318, 109.027541787223, 136.6051891944228, 167.580078820196, 200.3134761701062, 237.82377675300486, 269.8501842521481, 303.2389863446909, 339.0138028033846, 374.9263330767467, 416.6475912365315, 461.4328228464031, 505.12384163749914, 542.8684540236487, 585.5802677686468, 630.288136133613, 680.5743150786174, 726.4000275330392, 756.9609694221483, 786.073584849625, 815.8722976614106]","dist_absent",56,59,"yes","no",1680,NA,NA,"no hp","True","NR","NR","lp",NA,NA,NA,NA,-2,NA,"first",0,"R","in"
"77",1415.7901999997,29230.1041000009,117034.288999998,11,46,"n",2,"['8', '4', 'space']","y","#000000","no",698031.0639,2,"bias","psycho","psycho","psycho",0,"uniform",1,0,1,1,NA,1,0,NA,0,0,1,0,76,76,NA,NA,NA,NA,0,1,1,NA,76,1,76,73.2296414732588,"Thu Oct 28 11:26:32 2021","The main experiment item","yes","green","yes","2","diamond",NA,"pinging_target_expectations 4.0.osexp","C:\Users\etp-cp-ping\Desktop\LocalPC-EXP",75,"no","mono","no",18,"no","white","no","yes",1050,NA,2,"psycho",20,1,20,"C:/Users/etp-cp-ping/Desktop/LocalPC-EXP/subject-8.csv","psycho",14,77,21,"Lentiform Loewenfeld","3.3.8","['hori', 'vert', 'vert', 'vert', 'hori', 'vert', 'hori', 'hori']","yes",102,"circles","no",0,NA,2,"legacy",NA,1024,2,48000,-16,"experiment",8,"even","red","no",7,"circle",252366.337,597460.4843,597460.6262,NA,628450.939800001,NA,NA,67617.9760999999,1359.90050000009,456440.1812,67617.9980000002,696893.5108,700110.8348,NA,NA,NA,NA,1359.97880000014,629291.4417,455932.9751,NA,696893.5251,629666.6687,696893.4605,"New experiment",19,"[0, 75.43923015440548, 92.1392962560032, 110.81969515381785, 131.0406214973915, 153.39419157130038, 179.94022876426084, 203.14078167058105, 229.91592907704452, 254.69616787876728, 281.3659947175547, 312.05377844155265, 341.4790766790427, 369.43391306571664, 404.63428253189124, 437.70006139213194, 476.77114953692603, 516.3904748843357, 548.7332045474832, 583.4104641148224, 620.948468071224, 661.9934170416977, 703.3277129869626, 743.3384134656262, 768.8470101138055, 791.5190819199862, 809.8738769463173, 831.3627582562456, 868.721844280144, 872.7526216062081]","dist_present",56,83,"yes","no",1680,NA,NA,"no hp","True","NR","NR","lp",NA,NA,NA,NA,3,0,"first",4,"NR","in"
"78",871.885299999965,30101.9894000009,117906.174299998,11,46,"n",2,"['8', '4', 'space']","y","#000000","no",700901.1376,2,"bias","psycho","psycho","psycho",0,"uniform",0,0,1,1,NA,1,0,NA,0,0,1,0,77,77,NA,NA,NA,NA,0,1,1,NA,77,1,77,73.2296414732588,"Thu Oct 28 11:26:32 2021","The main experiment item","yes","green","yes","2","circle",NA,"pinging_target_expectations 4.0.osexp","C:\Users\etp-cp-ping\Desktop\LocalPC-EXP",75,"no","mono","no",18,"no","white","no","yes",1050,NA,2,"psycho",21,1,21,"C:/Users/etp-cp-ping/Desktop/LocalPC-EXP/subject-8.csv","psycho",15,78,22,"Lentiform Loewenfeld","3.3.8","['hori', 'vert', 'vert', 'hori', 'hori', 'vert', 'hori', 'vert']","yes",102,"circles","no",0,NA,2,"legacy",NA,1024,2,48000,-16,"experiment",8,"even","red","no",4,"diamond",252366.337,597460.4843,597460.6262,NA,628450.939800001,NA,NA,67617.9760999999,1359.90050000009,456440.1812,67617.9980000002,700141.519,702974.8522,NA,NA,NA,NA,1359.97880000014,629291.4417,455932.9751,NA,700141.5337,629666.6687,700141.4698,"New experiment",19,"[0, 77.35537246955178, 93.75954873246975, 115.56266105611878, 142.7867111220355, 164.60073648429545, 188.40856089974469, 217.07656472123384, 243.57739754285618, 268.12429946914745, 295.8725819850635, 322.46651804302047, 349.4833525659039, 377.41524294913177, 401.4340813477117, 432.9876210870803, 460.93651713878296, 493.53836197277496, 523.0761146490148, 564.6380068216798, 595.6813325931911, 633.4093313875852, 679.0797721374641, 716.1733741257375, 751.7875869639552, 789.4145162812916, 817.6538357712069, 844.951918594383, 854.976898138247, 863.4730723040755, 878.2090034497693, 928.1476175695329]","dist_present",56,53,"yes","no",1680,-22.1326100795755,5.33351765583542,"more toward","False","NR","R","lp","Left",NA,"Left",NA,-2,0,"first",7,"NR","in"
"79",858.372600000701,30960.3620000016,118764.546899999,12,47,"n",2,"['8', '4', 'space']","y","#000000","no",704961.8894,2,"bias","psycho","psycho","psycho",0,"uniform",1,0,1,1,NA,1,0,NA,0,0,1,0,78,78,NA,NA,NA,NA,0,1,1,NA,78,1,78,73.2296414732588,"Thu Oct 28 11:26:32 2021","The main experiment item","yes","red","no","None","diamond",NA,"pinging_target_expectations 4.0.osexp","C:\Users\etp-cp-ping\Desktop\LocalPC-EXP",75,"no","mono","no",18,"no","white","no","yes",1050,NA,2,"psycho",22,1,22,"C:/Users/etp-cp-ping/Desktop/LocalPC-EXP/subject-8.csv","psycho",16,79,23,"Lentiform Loewenfeld","3.3.8","['vert', 'vert', 'hori', 'hori', 'vert', 'hori', 'hori', 'vert']","yes",102,"circles","no",0,NA,2,"legacy",NA,1024,2,48000,-16,"experiment",8,"even","green","yes",2,"circle",252366.337,597460.4843,597460.6262,NA,628450.939800001,NA,NA,67617.9760999999,1359.90050000009,456440.1812,67617.9980000002,703005.6005,705790.8533,NA,NA,NA,NA,1359.97880000014,629291.4417,455932.9751,NA,703005.6146,629666.6687,703005.5497,"New experiment",19,"[0]","dist_absent",56,39,"yes","yes",1680,-17.9241725795755,15.5725176558354,"more toward","False","NR","NR","lp",NA,"Left",NA,"Left",0,NA,"first",4,"NR","ex"
