"","RT","RT_bl","RT_tot","acc_bl","acc_tot","answer_debrief_1","answer_debrief_2","answer_debrief_3","answer_debrief_4","background","bidi","blink_onset","block_cnt","block_type","canvas_backend","clock_backend","color_backend","compensation","coordinates","correct","count_block_loop","count_block_seq","count_block_settings","count_check_session","count_drift_correct","count_end_loop","count_end_seq","count_exp_settings","count_experiment","count_feedback","count_instructions","count_log_variables","count_logger","count_new_inline_script","count_new_pygaze_drift_correct","count_new_pygaze_start_recording","count_new_pygaze_stop_recording","count_pygaze","count_start_recording","count_stop_recording","count_test_location","count_trial","count_trial_loop","count_trial_seq","d_eye","datetime","description","disable_garbage_collection","dist_color","dist_high","dist_loc","dist_shape","empty_column","experiment_file","experiment_path","eye_threshold_length","font_bold","font_family","font_italic","font_size","font_underline","foreground","form_clicks","fullscreen","height","high_loc","high_prob_loc","keyboard_backend","live_row","live_row_block_loop","live_row_trial_loop","logfile","mouse_backend","nr_blinks","nr_trials","nr_trials_bl","opensesame_codename","opensesame_version","orient_list_trial","ping","ping_trigger","ping_type","practice","repeat_cycle","response","round_decimals","sampler_backend","session_nr","sound_buf_size","sound_channels","sound_freq","sound_sample_size","start","subject_nr","subject_parity","target_color","target_high","target_loc","target_shape","time_block_loop","time_block_seq","time_block_settings","time_check_session","time_drift_correct","time_end_loop","time_end_seq","time_exp_settings","time_experiment","time_feedback","time_instructions","time_log_variables","time_logger","time_new_inline_script","time_new_pygaze_drift_correct","time_new_pygaze_start_recording","time_new_pygaze_stop_recording","time_pygaze","time_start_recording","time_stop_recording","time_test_location","time_trial","time_trial_loop","time_trial_seq","title","total_blocks","tracker_dev","trial_type","trials_in_block","trigger","uniform_coordinates","update_blinks","width","x","y","toward","containsNaN","rept","repd","prevtar","pd","nt","pd_c","nt_c","tar_dist","dist_dist","prevHP","eegTar","repteeg","tarcounter"
"1",1109.81879999963,1109.81879999963,1109.81879999963,0,0,"y",1,"['3', 'space']","n","#000000","no",1584.11230000274,1,"neutral","psycho","psycho","psycho",0,"uniform",0,0,0,0,NA,0,0,NA,0,0,0,0,0,0,NA,NA,NA,NA,0,0,0,NA,0,0,0,73.2296414732588,"Fri Sep  3 15:05:09 2021","The main experiment item","yes","green","no","6","circle",NA,"pinging_target_expectations 4.0.osexp","C:\Users\etp-cp-ping\Desktop\LocalPC-EXP",75,"no","mono","no",18,"no","white","no","yes",1050,NA,100,"psycho",0,0,0,"C:/Users/etp-cp-ping/Desktop/LocalPC-EXP/subject-12.csv","psycho",0,1,1,"Lentiform Loewenfeld","3.3.8","['vert', 'hori', 'vert', 'vert', 'hori', 'hori', 'vert', 'hori']","no",209,"None","yes",0,NA,2,"legacy",NA,1024,2,48000,-16,"experiment",12,"even","red","no",4,"diamond",219408.785600001,219447.592500001,219447.6349,NA,224880.798100003,NA,NA,6009.16309999957,1589.03970000028,NA,6009.18470000033,225564.114000001,228449.529900001,NA,NA,NA,NA,1589.11640000224,225190.418500002,NA,NA,225564.130300001,225559.7499,225564.038300003,"New experiment",19,"[0]","dist_present",56,57,"yes","yes",1680,NA,NA,NA,NA,"NR","NR","lp","Right",NA,"Right",NA,NA,NA,"practice",999,"NR","in"
"2",2000.48419999803,3110.30299999766,3110.30299999766,0,0,"y",1,"['3', 'space']","n","#000000","no",1584.11230000274,1,"neutral","psycho","psycho","psycho",0,"uniform",0,0,0,0,NA,0,0,NA,0,0,0,0,1,1,NA,NA,NA,NA,0,0,0,NA,1,0,1,73.2296414732588,"Fri Sep  3 15:05:09 2021","The main experiment item","yes","red","no","None","diamond",NA,"pinging_target_expectations 4.0.osexp","C:\Users\etp-cp-ping\Desktop\LocalPC-EXP",75,"no","mono","no",18,"no","white","no","yes",1050,NA,100,"psycho",1,0,1,"C:/Users/etp-cp-ping/Desktop/LocalPC-EXP/subject-12.csv","psycho",0,2,2,"Lentiform Loewenfeld","3.3.8","['hori', 'vert', 'vert', 'hori', 'vert', 'hori', 'vert', 'hori']","no",209,"None","yes",0,NA,2,"legacy",NA,1024,2,48000,-16,"experiment",12,"even","green","no",3,"circle",219408.785600001,219447.592500001,219447.6349,NA,224880.798100003,NA,NA,6009.16309999957,1589.03970000028,NA,6009.18470000033,228490.072100001,232279.953600002,NA,NA,NA,NA,1589.11640000224,225190.418500002,NA,NA,228490.086500002,225559.7499,228490.022100003,"New experiment",19,"[0]","dist_absent",56,49,"yes","yes",1680,NA,NA,NA,NA,"NR","NR","lp",NA,"Left",NA,NA,NA,NA,"practice",4,"NR","in"
"3",1471.67640000043,4581.97939999809,4581.97939999809,0,0,"y",1,"['3', 'space']","n","#000000","no",1584.11230000274,1,"neutral","psycho","psycho","psycho",0,"uniform",0,0,0,0,NA,0,0,NA,0,0,0,0,2,2,NA,NA,NA,NA,0,0,0,NA,2,0,2,73.2296414732588,"Fri Sep  3 15:05:09 2021","The main experiment item","yes","red","no","4","circle",NA,"pinging_target_expectations 4.0.osexp","C:\Users\etp-cp-ping\Desktop\LocalPC-EXP",75,"no","mono","no",18,"no","white","no","yes",1050,NA,100,"psycho",2,0,2,"C:/Users/etp-cp-ping/Desktop/LocalPC-EXP/subject-12.csv","psycho",0,3,3,"Lentiform Loewenfeld","3.3.8","['hori', 'vert', 'vert', 'hori', 'hori', 'vert', 'hori', 'vert']","yes",109,"diamond","yes",0,NA,2,"legacy",NA,1024,2,48000,-16,"experiment",12,"even","green","no",1,"diamond",219408.785600001,219447.592500001,219447.6349,NA,224880.798100003,NA,NA,6009.16309999957,1589.03970000028,NA,6009.18470000033,232310.746400002,235761.573800002,NA,NA,NA,NA,1589.11640000224,225190.418500002,NA,NA,232310.760700002,225559.7499,232310.697700002,"New experiment",19,"[0]","dist_present",56,25,"yes","yes",1680,NA,NA,NA,NA,"NR","NR","lp",NA,"Left",NA,NA,NA,NA,"practice",3,"NR","in"
"4",2000.57000000015,6582.54939999824,6582.54939999824,0,0,"y",1,"['3', 'space']","n","#000000","no",1584.11230000274,1,"neutral","psycho","psycho","psycho",0,"uniform",0,0,0,0,NA,0,0,NA,0,0,0,0,3,3,NA,NA,NA,NA,0,0,0,NA,3,0,3,73.2296414732588,"Fri Sep  3 15:05:09 2021","The main experiment item","yes","red","no","2","diamond",NA,"pinging_target_expectations 4.0.osexp","C:\Users\etp-cp-ping\Desktop\LocalPC-EXP",75,"no","mono","no",18,"no","white","no","yes",1050,NA,100,"psycho",3,0,3,"C:/Users/etp-cp-ping/Desktop/LocalPC-EXP/subject-12.csv","psycho",0,4,4,"Lentiform Loewenfeld","3.3.8","['vert', 'hori', 'hori', 'vert', 'hori', 'hori', 'vert', 'vert']","no",209,"None","yes",0,NA,2,"legacy",NA,1024,2,48000,-16,"experiment",12,"even","green","no",7,"circle",219408.785600001,219447.592500001,219447.6349,NA,224880.798100003,NA,NA,6009.16309999957,1589.03970000028,NA,6009.18470000033,235791.919700001,239868.823000001,NA,NA,NA,NA,1589.11640000224,225190.418500002,NA,NA,235791.9339,225559.7499,235791.8689,"New experiment",19,"[0]","dist_present",56,83,"yes","yes",1680,NA,NA,NA,NA,"NR","NR","lp",NA,NA,NA,NA,NA,NA,"practice",1,"NR","in"
"5",2000.10610000027,8582.65549999851,8582.65549999851,0,0,"y",1,"['3', 'space']","n","#000000","no",1584.11230000274,1,"neutral","psycho","psycho","psycho",0,"uniform",0,0,0,0,NA,0,0,NA,0,0,0,0,4,4,NA,NA,NA,NA,0,0,0,NA,4,0,4,73.2296414732588,"Fri Sep  3 15:05:09 2021","The main experiment item","yes","red","no","None","diamond",NA,"pinging_target_expectations 4.0.osexp","C:\Users\etp-cp-ping\Desktop\LocalPC-EXP",75,"no","mono","no",18,"no","white","no","yes",1050,NA,100,"psycho",4,0,4,"C:/Users/etp-cp-ping/Desktop/LocalPC-EXP/subject-12.csv","psycho",0,5,5,"Lentiform Loewenfeld","3.3.8","['hori', 'vert', 'hori', 'vert', 'vert', 'vert', 'hori', 'hori']","no",209,"None","yes",0,NA,2,"legacy",NA,1024,2,48000,-16,"experiment",12,"even","green","no",7,"circle",219408.785600001,219447.592500001,219447.6349,NA,224880.798100003,NA,NA,6009.16309999957,1589.03970000028,NA,6009.18470000033,239898.9645,243689.869600003,NA,NA,NA,NA,1589.11640000224,225190.418500002,NA,NA,239898.9788,225559.7499,239898.913700003,"New experiment",19,"[0]","dist_absent",56,89,"yes","yes",1680,NA,NA,NA,NA,"R","NR","lp",NA,"Right",NA,NA,NA,NA,"practice",7,"NR","in"
"6",2000.92170000062,10583.5771999991,10583.5771999991,0,0,"y",1,"['3', 'space']","n","#000000","no",1584.11230000274,1,"neutral","psycho","psycho","psycho",0,"uniform",0,0,0,0,NA,0,0,NA,0,0,0,0,5,5,NA,NA,NA,NA,0,0,0,NA,5,0,5,73.2296414732588,"Fri Sep  3 15:05:09 2021","The main experiment item","yes","green","no","5","circle",NA,"pinging_target_expectations 4.0.osexp","C:\Users\etp-cp-ping\Desktop\LocalPC-EXP",75,"no","mono","no",18,"no","white","no","yes",1050,NA,100,"psycho",5,0,5,"C:/Users/etp-cp-ping/Desktop/LocalPC-EXP/subject-12.csv","psycho",0,6,6,"Lentiform Loewenfeld","3.3.8","['hori', 'vert', 'hori', 'hori', 'vert', 'vert', 'hori', 'vert']","no",209,"None","yes",0,NA,2,"legacy",NA,1024,2,48000,-16,"experiment",12,"even","red","no",2,"diamond",219408.785600001,219447.592500001,219447.6349,NA,224880.798100003,NA,NA,6009.16309999957,1589.03970000028,NA,6009.18470000033,243720.026300001,247420.116600002,NA,NA,NA,NA,1589.11640000224,225190.418500002,NA,NA,243720.0409,225559.7499,243719.976800003,"New experiment",19,"[0]","dist_present",56,36,"yes","yes",1680,NA,NA,NA,NA,"NR","NR","lp",NA,NA,NA,NA,NA,NA,"practice",7,"R","in"
"7",1604.56310000154,12188.1403000007,12188.1403000007,0,0,"y",1,"['3', 'space']","n","#000000","no",1584.11230000274,1,"neutral","psycho","psycho","psycho",0,"uniform",0,0,0,0,NA,0,0,NA,0,0,0,0,6,6,NA,NA,NA,NA,0,0,0,NA,6,0,6,73.2296414732588,"Fri Sep  3 15:05:09 2021","The main experiment item","yes","green","no","0","diamond",NA,"pinging_target_expectations 4.0.osexp","C:\Users\etp-cp-ping\Desktop\LocalPC-EXP",75,"no","mono","no",18,"no","white","no","yes",1050,NA,100,"psycho",6,0,6,"C:/Users/etp-cp-ping/Desktop/LocalPC-EXP/subject-12.csv","psycho",0,7,7,"Lentiform Loewenfeld","3.3.8","['vert', 'hori', 'vert', 'vert', 'hori', 'hori', 'vert', 'hori']","no",209,"None","yes",0,NA,2,"legacy",NA,1024,2,48000,-16,"experiment",12,"even","red","no",5,"circle",219408.785600001,219447.592500001,219447.6349,NA,224880.798100003,NA,NA,6009.16309999957,1589.03970000028,NA,6009.18470000033,247450.214100001,250913.567400003,NA,NA,NA,NA,1589.11640000224,225190.418500002,NA,NA,247450.228500002,225559.7499,247450.164500002,"New experiment",19,"[0]","dist_present",56,61,"yes","yes",1680,NA,NA,NA,NA,"NR","NR","lp",NA,"Right",NA,NA,NA,NA,"practice",2,"NR","in"
"8",2000.14899999951,14188.2893000002,14188.2893000002,0,0,"y",1,"['3', 'space']","n","#000000","no",1584.11230000274,1,"neutral","psycho","psycho","psycho",0,"uniform",0,0,0,0,NA,0,0,NA,0,0,0,0,7,7,NA,NA,NA,NA,0,0,0,NA,7,0,7,73.2296414732588,"Fri Sep  3 15:05:09 2021","The main experiment item","yes","green","no","5","circle",NA,"pinging_target_expectations 4.0.osexp","C:\Users\etp-cp-ping\Desktop\LocalPC-EXP",75,"no","mono","no",18,"no","white","no","yes",1050,NA,100,"psycho",7,0,7,"C:/Users/etp-cp-ping/Desktop/LocalPC-EXP/subject-12.csv","psycho",0,8,8,"Lentiform Loewenfeld","3.3.8","['vert', 'hori', 'vert', 'vert', 'hori', 'hori', 'hori', 'vert']","yes",109,"diamond","yes",0,NA,2,"legacy",NA,1024,2,48000,-16,"experiment",12,"even","red","no",0,"diamond",219408.785600001,219447.592500001,219447.6349,NA,224880.798100003,NA,NA,6009.16309999957,1589.03970000028,NA,6009.18470000033,250943.915,254834.7072,NA,NA,NA,NA,1589.11640000224,225190.418500002,NA,NA,250943.929200002,225559.7499,250943.8639,"New experiment",19,"[0]","dist_present",56,16,"yes","yes",1680,NA,NA,NA,NA,"NR","NR","lp","Right",NA,NA,NA,NA,NA,"practice",5,"NR","in"
"9",1827.94849999846,16016.2377999986,16016.2377999986,1,1,"y",1,"['3', 'space']","n","#000000","no",1584.11230000274,1,"neutral","psycho","psycho","psycho",0,"uniform",1,0,0,0,NA,0,0,NA,0,0,0,0,8,8,NA,NA,NA,NA,0,0,0,NA,8,0,8,73.2296414732588,"Fri Sep  3 15:05:09 2021","The main experiment item","yes","red","no","None","diamond",NA,"pinging_target_expectations 4.0.osexp","C:\Users\etp-cp-ping\Desktop\LocalPC-EXP",75,"no","mono","no",18,"no","white","no","yes",1050,NA,100,"psycho",8,0,8,"C:/Users/etp-cp-ping/Desktop/LocalPC-EXP/subject-12.csv","psycho",0,9,9,"Lentiform Loewenfeld","3.3.8","['hori', 'vert', 'vert', 'hori', 'hori', 'vert', 'vert', 'hori']","yes",109,"diamond","yes",0,NA,2,"legacy",NA,1024,2,48000,-16,"experiment",12,"even","green","no",4,"circle",219408.785600001,219447.592500001,219447.6349,NA,224880.798100003,NA,NA,6009.16309999957,1589.03970000028,NA,6009.18470000033,254864.8111,258529.5812,NA,NA,NA,NA,1589.11640000224,225190.418500002,NA,NA,254864.825600001,225559.7499,254864.761600002,"New experiment",19,"[0]","dist_absent",56,59,"yes","yes",1680,NA,NA,NA,NA,"NR","NR","lp",NA,NA,NA,NA,NA,NA,"practice",0,"NR","in"
"10",1475.69049999947,17491.9282999981,17491.9282999981,2,2,"y",1,"['3', 'space']","n","#000000","no",1584.11230000274,1,"neutral","psycho","psycho","psycho",0,"uniform",1,0,0,0,NA,0,0,NA,0,0,0,0,9,9,NA,NA,NA,NA,0,0,0,NA,9,0,9,73.2296414732588,"Fri Sep  3 15:05:09 2021","The main experiment item","yes","red","no","7","circle",NA,"pinging_target_expectations 4.0.osexp","C:\Users\etp-cp-ping\Desktop\LocalPC-EXP",75,"no","mono","no",18,"no","white","no","yes",1050,NA,100,"psycho",9,0,9,"C:/Users/etp-cp-ping/Desktop/LocalPC-EXP/subject-12.csv","psycho",0,10,10,"Lentiform Loewenfeld","3.3.8","['vert', 'vert', 'vert', 'hori', 'vert', 'hori', 'hori', 'hori']","no",209,"None","yes",0,NA,2,"legacy",NA,1024,2,48000,-16,"experiment",12,"even","green","no",3,"diamond",219408.785600001,219447.592500001,219447.6349,NA,224880.798100003,NA,NA,6009.16309999957,1589.03970000028,NA,6009.18470000033,258559.9721,261873.586500002,NA,NA,NA,NA,1589.11640000224,225190.418500002,NA,NA,258559.9864,225559.7499,258559.922100001,"New experiment",19,"[0]","dist_present",56,48,"yes","yes",1680,NA,NA,NA,NA,"NR","NR","lp",NA,NA,NA,NA,NA,NA,"practice",4,"NR","in"
"11",1441.58070000052,18933.5089999986,18933.5089999986,3,3,"y",1,"['3', 'space']","n","#000000","no",1584.11230000274,1,"neutral","psycho","psycho","psycho",0,"uniform",1,0,0,0,NA,0,0,NA,0,0,0,0,10,10,NA,NA,NA,NA,0,0,0,NA,10,0,10,73.2296414732588,"Fri Sep  3 15:05:09 2021","The main experiment item","yes","green","no","None","diamond",NA,"pinging_target_expectations 4.0.osexp","C:\Users\etp-cp-ping\Desktop\LocalPC-EXP",75,"no","mono","no",18,"no","white","no","yes",1050,NA,100,"psycho",10,0,10,"C:/Users/etp-cp-ping/Desktop/LocalPC-EXP/subject-12.csv","psycho",0,11,11,"Lentiform Loewenfeld","3.3.8","['vert', 'vert', 'vert', 'hori', 'vert', 'hori', 'hori', 'hori']","yes",109,"circles","yes",0,NA,2,"legacy",NA,1024,2,48000,-16,"experiment",12,"even","red","no",6,"circle",219408.785600001,219447.592500001,219447.6349,NA,224880.798100003,NA,NA,6009.16309999957,1589.03970000028,NA,6009.18470000033,261903.9395,265329.582800001,NA,NA,NA,NA,1589.11640000224,225190.418500002,NA,NA,261903.9539,225559.7499,261903.886200002,"New experiment",19,"[0]","dist_absent",56,79,"yes","yes",1680,NA,NA,NA,NA,"NR","NR","lp",NA,"Right",NA,"Right",NA,NA,"practice",3,"NR","in"
"12",1080.0992000004,20013.608199999,20013.608199999,3,3,"y",1,"['3', 'space']","n","#000000","no",1584.11230000274,1,"neutral","psycho","psycho","psycho",0,"uniform",0,0,0,0,NA,0,0,NA,0,0,0,0,11,11,NA,NA,NA,NA,0,0,0,NA,11,0,11,73.2296414732588,"Fri Sep  3 15:05:09 2021","The main experiment item","yes","green","no","1","circle",NA,"pinging_target_expectations 4.0.osexp","C:\Users\etp-cp-ping\Desktop\LocalPC-EXP",75,"no","mono","no",18,"no","white","no","yes",1050,NA,100,"psycho",11,0,11,"C:/Users/etp-cp-ping/Desktop/LocalPC-EXP/subject-12.csv","psycho",0,12,12,"Lentiform Loewenfeld","3.3.8","['vert', 'hori', 'vert', 'hori', 'hori', 'vert', 'vert', 'hori']","yes",109,"circles","yes",0,NA,2,"legacy",NA,1024,2,48000,-16,"experiment",12,"even","red","no",5,"diamond",219408.785600001,219447.592500001,219447.6349,NA,224880.798100003,NA,NA,6009.16309999957,1589.03970000028,NA,6009.18470000033,265360.023600002,268321.558800002,NA,NA,NA,NA,1589.11640000224,225190.418500002,NA,NA,265360.037900002,225559.7499,265359.9741,"New experiment",19,"[0]","dist_present",56,62,"yes","yes",1680,NA,NA,NA,NA,"NR","NR","lp",NA,NA,NA,NA,NA,NA,"practice",6,"NR","in"
"13",1288.34559999814,21301.9537999972,21301.9537999972,4,4,"y",1,"['3', 'space']","n","#000000","no",269329.7303,1,"neutral","psycho","psycho","psycho",0,"uniform",1,0,0,0,NA,0,0,NA,0,0,0,0,12,12,NA,NA,NA,NA,0,0,0,NA,12,0,12,73.2296414732588,"Fri Sep  3 15:05:09 2021","The main experiment item","yes","green","no","None","diamond",NA,"pinging_target_expectations 4.0.osexp","C:\Users\etp-cp-ping\Desktop\LocalPC-EXP",75,"no","mono","no",18,"no","white","no","yes",1050,NA,100,"psycho",12,0,12,"C:/Users/etp-cp-ping/Desktop/LocalPC-EXP/subject-12.csv","psycho",1,13,13,"Lentiform Loewenfeld","3.3.8","['hori', 'vert', 'hori', 'vert', 'hori', 'vert', 'vert', 'hori']","yes",109,"diamond","yes",0,NA,2,"legacy",NA,1024,2,48000,-16,"experiment",12,"even","red","no",4,"circle",219408.785600001,219447.592500001,219447.6349,NA,224880.798100003,NA,NA,6009.16309999957,1589.03970000028,NA,6009.18470000033,268353.411100001,271649.688900001,NA,NA,NA,NA,1589.11640000224,225190.418500002,NA,NA,268353.425600002,225559.7499,268353.3604,"New experiment",19,"[0, 78.97628860992647, 82.46625022855174, 86.04663365910193, 90.48813756261937, 90.31440729765929, 92.76255838844507, 98.85395851834583, 99.057680383552, 103.27306354659025, 110.41103546715986, 110.21213219075494, 110.80366382256794, 114.45442558988259, 114.38778578637655, 117.34980362631207, 118.85590557083688, 117.06999027107933, 117.38869608799233, 117.73378690961601, 120.33030633248887, 116.32207934257072, 116.22240599923384, 116.20066293865779, 113.22705102142776, 112.62404335488384, 110.82763307465733, 109.63669785969874, 108.53246983865284, 105.84514641461834, 104.97548373339052, 102.14707352101401, 97.43723550718401, 97.20827161970224, 94.33034816516651, 91.7847805197536, 88.64354547454187, 85.88532878034047, 83.72334551357298, 80.02009464425915, 80.16112610047284, 74.30004108987946, 73.30550896108501, 94.26498737197407, 106.9753560373449, 133.08737731280152, 160.02389695047296, 181.43263558379846, 215.03993611879832, 246.49548060361758, 278.0135724998714, 311.28235386562824, 343.0372978835669, 375.6949020271373, 416.3030623936143, 458.4028166413124, 496.6751125354578, 545.8887711465314, 596.007550287746, 649.3847087820901, 698.2810782525946, 743.0996816117772, 794.8393109303278, 813.2839238984022, 822.3088289748345, 922.0616366794243]","dist_absent",56,59,"yes","no",1680,NA,NA,NA,NA,"NR","NR","lp",NA,NA,NA,NA,NA,NA,"practice",5,"NR","in"
"14",2000.65259999968,23302.6063999968,23302.6063999968,4,4,"y",1,"['3', 'space']","n","#000000","no",272916.2937,1,"neutral","psycho","psycho","psycho",0,"uniform",0,0,0,0,NA,0,0,NA,0,0,0,0,13,13,NA,NA,NA,NA,0,0,0,NA,13,0,13,73.2296414732588,"Fri Sep  3 15:05:09 2021","The main experiment item","yes","green","no","2","circle",NA,"pinging_target_expectations 4.0.osexp","C:\Users\etp-cp-ping\Desktop\LocalPC-EXP",75,"no","mono","no",18,"no","white","no","yes",1050,NA,100,"psycho",13,0,13,"C:/Users/etp-cp-ping/Desktop/LocalPC-EXP/subject-12.csv","psycho",3,14,14,"Lentiform Loewenfeld","3.3.8","['hori', 'vert', 'hori', 'hori', 'hori', 'vert', 'vert', 'vert']","yes",109,"circles","yes",0,NA,2,"legacy",NA,1024,2,48000,-16,"experiment",12,"even","red","no",6,"diamond",219408.785600001,219447.592500001,219447.6349,NA,224880.798100003,NA,NA,6009.16309999957,1589.03970000028,NA,6009.18470000033,271680.290300003,275557.463500001,NA,NA,NA,NA,1589.11640000224,225190.418500002,NA,NA,271680.306500002,225559.7499,271680.241500002,"New experiment",19,"[0, 88.51181811374643, 101.5567753434716, 121.32788031205511, 145.23497537194615, 161.50309594555765, 186.56055785735532, 208.51169903104645, 233.26022535866716, 269.59690147453125, 294.43055986932154, 317.6807123281996, 341.9283209532701, 376.9605162358273, 410.60002430108966, 442.4816737465667, 487.62165062445246, 533.2608545007511, 588.3642579219102, 632.4469679819574, 683.9598256302577, 730.6617039105898, 778.8638456674513, 827.7714718209062, 842.7491963503858, 862.6936697955272, 927.0274071295504, 999.2621571689787, 91.35913230043097, 113.07031390347872, 128.64223235513947, 160.5634206346484, 183.9201087333441, 209.44413783871045, 243.66448238425545, 272.65417032695433, 299.39646201531156, 337.49650302369474, 368.8026426340618, 398.40284819906293, 445.56982780228134, 488.0802610014049, 548.3750943171889, 606.2892686319802, 655.065517488252, 708.3285187665736, 761.3629706687011, 829.5134115853704, 855.0514982534852, 902.4716822459652]","dist_present",56,73,"yes","no",1680,NA,NA,NA,NA,"NR","NR","lp",NA,NA,NA,NA,NA,NA,"practice",4,"NR","in"
"15",1861.34250000032,25163.9488999972,25163.9488999972,5,5,"y",1,"['3', 'space']","n","#000000","no",276915.360700001,1,"neutral","psycho","psycho","psycho",0,"uniform",1,0,0,0,NA,0,0,NA,0,0,0,0,14,14,NA,NA,NA,NA,0,0,0,NA,14,0,14,73.2296414732588,"Fri Sep  3 15:05:09 2021","The main experiment item","yes","green","no","None","circle",NA,"pinging_target_expectations 4.0.osexp","C:\Users\etp-cp-ping\Desktop\LocalPC-EXP",75,"no","mono","no",18,"no","white","no","yes",1050,NA,100,"psycho",14,0,14,"C:/Users/etp-cp-ping/Desktop/LocalPC-EXP/subject-12.csv","psycho",4,15,15,"Lentiform Loewenfeld","3.3.8","['hori', 'vert', 'hori', 'vert', 'vert', 'vert', 'hori', 'hori']","no",209,"None","yes",0,NA,2,"legacy",NA,1024,2,48000,-16,"experiment",12,"even","red","no",2,"diamond",219408.785600001,219447.592500001,219447.6349,NA,224880.798100003,NA,NA,6009.16309999957,1589.03970000028,NA,6009.18470000033,275587.769199999,279489.787099999,NA,NA,NA,NA,1589.11640000224,225190.418500002,NA,NA,275587.783500003,225559.7499,275587.721100001,"New experiment",19,"[0, 84.02098022035146, 93.75042527247372, 738.5115011091622, 782.6944259380756, 829.4874578405896, 882.2834550783446, 899.47790411994, 921.4690131190928, 985.378073039062, 1026.948382705864, 1174.8553102403716]","dist_absent",56,39,"yes","no",1680,NA,NA,NA,NA,"NR","NR","lp",NA,"Left",NA,"Left",NA,NA,"practice",6,"NR","in"
"16",1544.59430000128,26708.5431999984,26708.5431999984,6,6,"y",1,"['3', 'space']","n","#000000","no",280302.9513,1,"neutral","psycho","psycho","psycho",0,"uniform",1,0,0,0,NA,0,0,NA,0,0,0,0,15,15,NA,NA,NA,NA,0,0,0,NA,15,0,15,73.2296414732588,"Fri Sep  3 15:05:09 2021","The main experiment item","yes","red","no","None","circle",NA,"pinging_target_expectations 4.0.osexp","C:\Users\etp-cp-ping\Desktop\LocalPC-EXP",75,"no","mono","no",18,"no","white","no","yes",1050,NA,100,"psycho",15,0,15,"C:/Users/etp-cp-ping/Desktop/LocalPC-EXP/subject-12.csv","psycho",5,16,16,"Lentiform Loewenfeld","3.3.8","['vert', 'vert', 'hori', 'vert', 'vert', 'hori', 'hori', 'hori']","yes",109,"diamond","yes",0,NA,2,"legacy",NA,1024,2,48000,-16,"experiment",12,"even","green","no",5,"diamond",219408.785600001,219447.592500001,219447.6349,NA,224880.798100003,NA,NA,6009.16309999957,1589.03970000028,NA,6009.18470000033,279520.264000003,283153.5931,NA,NA,NA,NA,1589.11640000224,225190.418500002,NA,NA,279520.2785,225559.7499,279520.214200002,"New experiment",19,"[0, 82.03590442152729, 97.56576210213606, 110.12329583537118, 125.94465613392317, 141.74317205329774, 156.8347094597012, 178.2220084114946, 196.9082516562301, 224.2050299918201, 242.9118810958827, 270.3226468516448, 289.60170210027354, 317.9031072368144, 349.16815904520394, 380.03124947963937, 404.4052535714781, 436.33330223260197, 476.4266372959197, 522.9520993764061, 565.2511277190837, 608.9746114114699, 656.2644601159876, 695.5553437054648, 733.9203328134415, 774.4145627378601, 821.1266553081931, 847.8493332958486, 862.1684839515075, 897.8000711075192, 939.5686486013522]","dist_absent",56,69,"yes","no",1680,NA,NA,NA,NA,"NR","R","lp",NA,"Right",NA,NA,NA,NA,"practice",2,"NR","in"
"17",2001.04169999756,28709.584899996,28709.584899996,6,6,"y",1,"['3', 'space']","n","#000000","no",284013.5157,1,"neutral","psycho","psycho","psycho",0,"uniform",0,0,0,0,NA,0,0,NA,0,0,0,0,16,16,NA,NA,NA,NA,0,0,0,NA,16,0,16,73.2296414732588,"Fri Sep  3 15:05:09 2021","The main experiment item","yes","red","no","4","diamond",NA,"pinging_target_expectations 4.0.osexp","C:\Users\etp-cp-ping\Desktop\LocalPC-EXP",75,"no","mono","no",18,"no","white","no","yes",1050,NA,100,"psycho",16,0,16,"C:/Users/etp-cp-ping/Desktop/LocalPC-EXP/subject-12.csv","psycho",6,17,17,"Lentiform Loewenfeld","3.3.8","['vert', 'hori', 'vert', 'hori', 'hori', 'vert', 'hori', 'vert']","no",209,"None","yes",0,NA,2,"legacy",NA,1024,2,48000,-16,"experiment",12,"even","green","no",7,"circle",219408.785600001,219447.592500001,219447.6349,NA,224880.798100003,NA,NA,6009.16309999957,1589.03970000028,NA,6009.18470000033,283184.207599999,287267.834800001,NA,NA,NA,NA,1589.11640000224,225190.418500002,NA,NA,283184.222,225559.7499,283184.1571,"New experiment",19,"[0, 78.00338107092789, 93.12923064792795, 109.0717386734384, 124.8167268547592, 149.4552033229145, 168.06598509716352, 187.50384150361674, 205.91112300255327, 233.0378109304213, 257.6197946371132, 281.10995310964256, 301.8323393769306, 328.39151554275736, 353.1671567410915, 379.5296049875583, 412.423677109982, 443.6304525917913, 476.6177076244568, 506.42556145202144, 551.6230364265139, 597.5022346221147, 634.4787167677496, 680.5781841789186, 724.4413105383703, 751.697001786704, 801.4175246483428, 831.3241062537959, 860.6153649208762, 858.920939830266, 884.2787120257913, 953.33572469487, 973.4173051677271, 1114.6648648419348]","dist_present",56,85,"yes","no",1680,NA,NA,NA,NA,"NR","NR","lp",NA,"Right",NA,NA,NA,NA,"practice",5,"NR","in"
"18",752.279799999087,29461.8646999951,29461.8646999951,7,7,"y",1,"['3', 'space']","n","#000000","no",288518.110500001,1,"neutral","psycho","psycho","psycho",0,"uniform",1,0,0,0,NA,0,0,NA,0,0,0,0,17,17,NA,NA,NA,NA,0,0,0,NA,17,0,17,73.2296414732588,"Fri Sep  3 15:05:09 2021","The main experiment item","yes","red","no","None","circle",NA,"pinging_target_expectations 4.0.osexp","C:\Users\etp-cp-ping\Desktop\LocalPC-EXP",75,"no","mono","no",18,"no","white","no","yes",1050,NA,100,"psycho",17,0,17,"C:/Users/etp-cp-ping/Desktop/LocalPC-EXP/subject-12.csv","psycho",8,18,18,"Lentiform Loewenfeld","3.3.8","['vert', 'hori', 'hori', 'vert', 'hori', 'vert', 'vert', 'hori']","no",209,"None","yes",0,NA,2,"legacy",NA,1024,2,48000,-16,"experiment",12,"even","green","no",2,"diamond",219408.785600001,219447.592500001,219447.6349,NA,224880.798100003,NA,NA,6009.16309999957,1589.03970000028,NA,6009.18470000033,287298.102000001,290225.609000001,NA,NA,NA,NA,1589.11640000224,225190.418500002,NA,NA,287298.116000002,225559.7499,287298.048300003,"New experiment",19,"[0, 81.81452901657698, 91.95023632092199, 113.17191514651498, 126.6891182505655, 144.0150447785192, 161.73142334097966, 183.03085658011156, 202.64354317574754, 224.38272963923083, 242.00128473114358, 273.6869689582247, 293.4153614352399, 311.8070593895478, 340.20289295363756, 368.113028667828, 394.24416281298335, 424.3019445270017, 452.49689558888497, 491.59869264408724, 522.1151219897338, 571.3804519423264, 615.2109754240636, 658.4156967201653, 699.6143026941221, 742.5365232872576, 772.9513114726111, 816.5883522311058, 860.2028414947418, 877.1754115466706, 876.0332859909294, 894.9123767010136, 931.8484753414024, 982.7099278934612, 1067.7652782418734, 1210.7283134458758, 1244.532426968998, 84.36073008670573, 98.62498559291795, 106.63519553486273, 120.25738780336621, 138.36001341785288, 151.35573560712018, 175.9763886375394, 193.95062436708722, 215.14051268358233, 235.28593545067463, 256.94860502637545, 282.32194943419535, 307.35429249998225, 327.3302466300462, 351.7440253371081, 385.2430936386656, 421.90999128035435, 448.0974464839215, 487.76644195201806, 525.3330008919794, 575.8479325277503, 620.3112670937862, 668.2124572067695, 715.9198289231239, 765.7653276023987, 811.7144852781381, 862.9090635677118, 899.3769848668601, 936.7813771495573, 980.5499785749827, 1032.3715906336545, 1169.3874526578418]","dist_absent",56,39,"yes","no",1680,NA,NA,NA,NA,"NR","NR","lp",NA,"Left",NA,"Left",NA,NA,"practice",7,"NR","in"
"19",851.921800000127,30313.7864999952,30313.7864999952,8,8,"y",1,"['3', 'space']","n","#000000","no",290987.651700001,1,"neutral","psycho","psycho","psycho",0,"uniform",1,0,0,0,NA,0,0,NA,0,0,0,0,18,18,NA,NA,NA,NA,0,0,0,NA,18,0,18,73.2296414732588,"Fri Sep  3 15:05:09 2021","The main experiment item","yes","red","no","5","diamond",NA,"pinging_target_expectations 4.0.osexp","C:\Users\etp-cp-ping\Desktop\LocalPC-EXP",75,"no","mono","no",18,"no","white","no","yes",1050,NA,100,"psycho",18,0,18,"C:/Users/etp-cp-ping/Desktop/LocalPC-EXP/subject-12.csv","psycho",9,19,19,"Lentiform Loewenfeld","3.3.8","['hori', 'hori', 'vert', 'hori', 'vert', 'vert', 'vert', 'hori']","yes",109,"circles","yes",0,NA,2,"legacy",NA,1024,2,48000,-16,"experiment",12,"even","green","no",1,"circle",219408.785600001,219447.592500001,219447.6349,NA,224880.798100003,NA,NA,6009.16309999957,1589.03970000028,NA,6009.18470000033,290256.296700001,292865.653600002,NA,NA,NA,NA,1589.11640000224,225190.418500002,NA,NA,290256.311000001,225559.7499,290256.245500001,"New experiment",19,"[0, 84.52810183601665, 98.19574330849069, 124.864238013014, 144.26144612774536, 168.29543046102916, 193.85768141740436, 223.89910356922414, 256.2575972482809, 285.39773050113075, 316.56213304365644, 348.5859347440289, 386.47404977237676, 422.2002017137713, 458.87579093779766, 508.6388997144604, 556.2429658394783, 610.7992707993246, 654.2950269936612, 699.9159462963278, 754.8382365574382, 817.1268514704701, 858.5129057110686, 880.7456440381568, 930.7064198283315]","dist_present",56,26,"yes","no",1680,NA,NA,NA,NA,"NR","NR","lp",NA,NA,NA,NA,NA,NA,"practice",2,"NR","in"
"20",1460.88990000135,31774.6763999966,31774.6763999966,8,8,"y",1,"['3', 'space']","n","#000000","no",294503.733200003,1,"neutral","psycho","psycho","psycho",0,"uniform",0,0,0,0,NA,0,0,NA,0,0,0,0,19,19,NA,NA,NA,NA,0,0,0,NA,19,0,19,73.2296414732588,"Fri Sep  3 15:05:09 2021","The main experiment item","yes","green","no","3","diamond",NA,"pinging_target_expectations 4.0.osexp","C:\Users\etp-cp-ping\Desktop\LocalPC-EXP",75,"no","mono","no",18,"no","white","no","yes",1050,NA,100,"psycho",19,0,19,"C:/Users/etp-cp-ping/Desktop/LocalPC-EXP/subject-12.csv","psycho",10,20,20,"Lentiform Loewenfeld","3.3.8","['hori', 'hori', 'hori', 'vert', 'hori', 'vert', 'vert', 'vert']","no",209,"None","yes",0,NA,2,"legacy",NA,1024,2,48000,-16,"experiment",12,"even","red","no",4,"circle",219408.785600001,219447.592500001,219447.6349,NA,224880.798100003,NA,NA,6009.16309999957,1589.03970000028,NA,6009.18470000033,292896.176300001,296321.606400001,NA,NA,NA,NA,1589.11640000224,225190.418500002,NA,NA,292896.1906,225559.7499,292896.125700001,"New experiment",19,"[0, 73.36900885224996, 87.07080547472165, 110.79429729673704, 138.6359517466502, 166.23265032238183, 195.15052062621788, 225.51151940808464, 253.59763573347834, 289.6976704449496, 325.82711291009065, 369.4023118571023, 405.70430170251166, 451.77570813290157, 505.71063684460546, 551.1134308445287, 609.6311026440793, 655.5708619211208, 712.1673842767177, 757.3256405148666, 759.8642348635756]","dist_present",56,54,"yes","no",1680,NA,NA,NA,NA,"NR","NR","lp","Left",NA,NA,NA,NA,NA,"practice",1,"NR","in"
"21",1276.21220000216,33050.8885999987,33050.8885999987,9,9,"y",1,"['3', 'space']","n","#000000","no",297219.283100003,1,"neutral","psycho","psycho","psycho",0,"uniform",1,0,0,0,NA,0,0,NA,0,0,0,0,20,20,NA,NA,NA,NA,0,0,0,NA,20,0,20,73.2296414732588,"Fri Sep  3 15:05:09 2021","The main experiment item","yes","green","no","3","diamond",NA,"pinging_target_expectations 4.0.osexp","C:\Users\etp-cp-ping\Desktop\LocalPC-EXP",75,"no","mono","no",18,"no","white","no","yes",1050,NA,100,"psycho",20,0,20,"C:/Users/etp-cp-ping/Desktop/LocalPC-EXP/subject-12.csv","psycho",11,21,21,"Lentiform Loewenfeld","3.3.8","['hori', 'vert', 'vert', 'hori', 'vert', 'vert', 'hori', 'hori']","yes",109,"diamond","yes",0,NA,2,"legacy",NA,1024,2,48000,-16,"experiment",12,"even","red","no",2,"circle",219408.785600001,219447.592500001,219447.6349,NA,224880.798100003,NA,NA,6009.16309999957,1589.03970000028,NA,6009.18470000033,296353.153700002,299345.691800001,NA,NA,NA,NA,1589.11640000224,225190.418500002,NA,NA,296353.168000001,225559.7499,296353.1023,"New experiment",19,"[0, 89.68944874843206, 107.88073056096688, 129.4939756286803, 153.18864066537978, 177.33822015056998, 203.27175215609796, 231.83279433947808, 264.5258779218627, 298.93240842968413, 328.63358633868353, 370.08865100742116, 416.1588515009837, 458.24102592609233, 505.0447816526886, 560.6241865892587, 616.9998636452701, 674.585956476848, 729.7345407749314, 792.9419529877998, 848.1143790786712, 904.0294339112697, 947.3282726629266, 1002.7028234712759, 1044.6686615439892]","dist_present",56,34,"yes","no",1680,NA,NA,NA,NA,"NR","R","lp",NA,NA,NA,NA,NA,NA,"practice",4,"NR","in"
"22",2000.54369999998,35051.4322999987,35051.4322999987,9,9,"y",1,"['3', 'space']","n","#000000","no",300168.848400001,1,"neutral","psycho","psycho","psycho",0,"uniform",0,0,0,0,NA,0,0,NA,0,0,0,0,21,21,NA,NA,NA,NA,0,0,0,NA,21,0,21,73.2296414732588,"Fri Sep  3 15:05:09 2021","The main experiment item","yes","red","no","7","diamond",NA,"pinging_target_expectations 4.0.osexp","C:\Users\etp-cp-ping\Desktop\LocalPC-EXP",75,"no","mono","no",18,"no","white","no","yes",1050,NA,100,"psycho",21,0,21,"C:/Users/etp-cp-ping/Desktop/LocalPC-EXP/subject-12.csv","psycho",12,22,22,"Lentiform Loewenfeld","3.3.8","['hori', 'vert', 'hori', 'vert', 'vert', 'vert', 'hori', 'hori']","no",209,"None","yes",0,NA,2,"legacy",NA,1024,2,48000,-16,"experiment",12,"even","green","no",5,"circle",219408.785600001,219447.592500001,219447.6349,NA,224880.798100003,NA,NA,6009.16309999957,1589.03970000028,NA,6009.18470000033,299376.198000002,303300.090500001,NA,NA,NA,NA,1589.11640000224,225190.418500002,NA,NA,299376.2121,225559.7499,299376.149,"New experiment",19,"[0]","dist_present",56,68,"yes","yes",1680,NA,NA,NA,NA,"NR","NR","lp",NA,NA,NA,NA,NA,NA,"practice",2,"NR","in"
"23",1775.00000000146,36826.4323000002,36826.4323000002,10,10,"y",1,"['3', 'space']","n","#000000","no",304056.944399999,1,"neutral","psycho","psycho","psycho",0,"uniform",1,0,0,0,NA,0,0,NA,0,0,0,0,22,22,NA,NA,NA,NA,0,0,0,NA,22,0,22,73.2296414732588,"Fri Sep  3 15:05:09 2021","The main experiment item","yes","red","no","2","circle",NA,"pinging_target_expectations 4.0.osexp","C:\Users\etp-cp-ping\Desktop\LocalPC-EXP",75,"no","mono","no",18,"no","white","no","yes",1050,NA,100,"psycho",22,0,22,"C:/Users/etp-cp-ping/Desktop/LocalPC-EXP/subject-12.csv","psycho",13,23,23,"Lentiform Loewenfeld","3.3.8","['vert', 'hori', 'hori', 'vert', 'vert', 'hori', 'vert', 'hori']","no",209,"None","yes",0,NA,2,"legacy",NA,1024,2,48000,-16,"experiment",12,"even","green","no",3,"diamond",219408.785600001,219447.592500001,219447.6349,NA,224880.798100003,NA,NA,6009.16309999957,1589.03970000028,NA,6009.18470000033,303330.336400002,307105.7702,NA,NA,NA,NA,1589.11640000224,225190.418500002,NA,NA,303330.3505,225559.7499,303330.288100002,"New experiment",19,"[0, 75.72715981981462, 95.88204369803623, 117.26824130992169, 139.0703565020899, 157.50461771659752, 190.80421903092184, 211.99888033013468, 236.6950261265891, 268.9298986187551, 297.2925928347278, 327.0282707886578, 360.3719209086563, 388.71364972737473, 430.14194265674706, 477.3836884376433, 512.5735864711077, 550.1581848828166, 603.9164576797402, 642.0125611499491, 690.5064856527548, 734.9252046472374, 789.9775134321981, 837.6527963826053, 879.1123957911162, 902.271759896128, 938.7357660866427, 970.0847306844045, 1038.7308406824004]","dist_present",56,43,"yes","no",1680,NA,NA,NA,NA,"NR","NR","lp",NA,NA,NA,NA,NA,NA,"practice",5,"NR","in"
"24",2000.30040000274,38826.7327000029,38826.7327000029,10,10,"y",1,"['3', 'space']","n","#000000","no",304056.944399999,1,"neutral","psycho","psycho","psycho",0,"uniform",0,0,0,0,NA,0,0,NA,0,0,0,0,23,23,NA,NA,NA,NA,0,0,0,NA,23,0,23,73.2296414732588,"Fri Sep  3 15:05:09 2021","The main experiment item","yes","green","no","7","diamond",NA,"pinging_target_expectations 4.0.osexp","C:\Users\etp-cp-ping\Desktop\LocalPC-EXP",75,"no","mono","no",18,"no","white","no","yes",1050,NA,100,"psycho",23,0,23,"C:/Users/etp-cp-ping/Desktop/LocalPC-EXP/subject-12.csv","psycho",13,24,24,"Lentiform Loewenfeld","3.3.8","['hori', 'vert', 'hori', 'vert', 'hori', 'vert', 'hori', 'vert']","yes",109,"diamond","yes",0,NA,2,"legacy",NA,1024,2,48000,-16,"experiment",12,"even","red","no",0,"circle",219408.785600001,219447.592500001,219447.6349,NA,224880.798100003,NA,NA,6009.16309999957,1589.03970000028,NA,6009.18470000033,307136.7317,311116.305200001,NA,NA,NA,NA,1589.11640000224,225190.418500002,NA,NA,307136.746100001,225559.7499,307136.681300002,"New experiment",19,"[0]","dist_present",56,18,"yes","yes",1680,NA,NA,NA,NA,"NR","NR","lp","Right",NA,NA,NA,NA,NA,"practice",3,"NR","in"
"25",973.820899998769,39800.5536000017,39800.5536000017,11,11,"y",1,"['3', 'space']","n","#000000","no",304056.944399999,1,"neutral","psycho","psycho","psycho",0,"uniform",1,0,0,0,NA,0,0,NA,0,0,0,0,24,24,NA,NA,NA,NA,0,0,0,NA,24,0,24,73.2296414732588,"Fri Sep  3 15:05:09 2021","The main experiment item","yes","red","no","5","circle",NA,"pinging_target_expectations 4.0.osexp","C:\Users\etp-cp-ping\Desktop\LocalPC-EXP",75,"no","mono","no",18,"no","white","no","yes",1050,NA,100,"psycho",24,0,24,"C:/Users/etp-cp-ping/Desktop/LocalPC-EXP/subject-12.csv","psycho",13,25,25,"Lentiform Loewenfeld","3.3.8","['vert', 'hori', 'hori', 'vert', 'vert', 'hori', 'vert', 'hori']","no",209,"None","yes",0,NA,2,"legacy",NA,1024,2,48000,-16,"experiment",12,"even","green","no",6,"diamond",219408.785600001,219447.592500001,219447.6349,NA,224880.798100003,NA,NA,6009.16309999957,1589.03970000028,NA,6009.18470000033,311146.611100001,313777.5554,NA,NA,NA,NA,1589.11640000224,225190.418500002,NA,NA,311146.6253,225559.7499,311146.562500002,"New experiment",19,"[0]","dist_present",56,76,"yes","yes",1680,NA,NA,NA,NA,"NR","NR","lp",NA,NA,NA,NA,NA,NA,"practice",0,"NR","in"
"26",1672.26579999988,41472.8194000016,41472.8194000016,12,12,"y",1,"['3', 'space']","n","#000000","no",304056.944399999,1,"neutral","psycho","psycho","psycho",0,"uniform",1,0,0,0,NA,0,0,NA,0,0,0,0,25,25,NA,NA,NA,NA,0,0,0,NA,25,0,25,73.2296414732588,"Fri Sep  3 15:05:09 2021","The main experiment item","yes","green","no","1","circle",NA,"pinging_target_expectations 4.0.osexp","C:\Users\etp-cp-ping\Desktop\LocalPC-EXP",75,"no","mono","no",18,"no","white","no","yes",1050,NA,100,"psycho",25,0,25,"C:/Users/etp-cp-ping/Desktop/LocalPC-EXP/subject-12.csv","psycho",13,26,26,"Lentiform Loewenfeld","3.3.8","['hori', 'vert', 'vert', 'hori', 'vert', 'vert', 'hori', 'hori']","yes",109,"circles","yes",0,NA,2,"legacy",NA,1024,2,48000,-16,"experiment",12,"even","red","no",0,"diamond",219408.785600001,219447.592500001,219447.6349,NA,224880.798100003,NA,NA,6009.16309999957,1589.03970000028,NA,6009.18470000033,313808.008600001,317297.6098,NA,NA,NA,NA,1589.11640000224,225190.418500002,NA,NA,313808.022700003,225559.7499,313807.9588,"New experiment",19,"[0]","dist_present",56,12,"yes","yes",1680,NA,NA,NA,NA,"NR","NR","lp","Left",NA,NA,NA,NA,NA,"practice",6,"NR","in"
"27",1598.58290000196,43071.4023000035,43071.4023000035,13,13,"y",1,"['3', 'space']","n","#000000","no",304056.944399999,1,"neutral","psycho","psycho","psycho",0,"uniform",1,0,0,0,NA,0,0,NA,0,0,0,0,26,26,NA,NA,NA,NA,0,0,0,NA,26,0,26,73.2296414732588,"Fri Sep  3 15:05:09 2021","The main experiment item","yes","green","no","0","circle",NA,"pinging_target_expectations 4.0.osexp","C:\Users\etp-cp-ping\Desktop\LocalPC-EXP",75,"no","mono","no",18,"no","white","no","yes",1050,NA,100,"psycho",26,0,26,"C:/Users/etp-cp-ping/Desktop/LocalPC-EXP/subject-12.csv","psycho",13,27,27,"Lentiform Loewenfeld","3.3.8","['vert', 'hori', 'vert', 'vert', 'vert', 'hori', 'hori', 'hori']","yes",109,"diamond","yes",0,NA,2,"legacy",NA,1024,2,48000,-16,"experiment",12,"even","red","no",6,"diamond",219408.785600001,219447.592500001,219447.6349,NA,224880.798100003,NA,NA,6009.16309999957,1589.03970000028,NA,6009.18470000033,317328.0371,321041.5837,NA,NA,NA,NA,1589.11640000224,225190.418500002,NA,NA,317328.0514,225559.7499,317327.988100002,"New experiment",19,"[0, 73.33518753944452, 73.51959087004985]","dist_present",56,71,"yes","yes",1680,NA,NA,NA,NA,"NR","NR","lp",NA,"Right",NA,"Right",NA,NA,"practice",0,"NR","in"
"28",1106.98880000197,44178.3911000055,44178.3911000055,14,14,"y",1,"['3', 'space']","n","#000000","no",304056.944399999,1,"neutral","psycho","psycho","psycho",0,"uniform",1,0,0,0,NA,0,0,NA,0,0,0,0,27,27,NA,NA,NA,NA,0,0,0,NA,27,0,27,73.2296414732588,"Fri Sep  3 15:05:09 2021","The main experiment item","yes","red","no","3","circle",NA,"pinging_target_expectations 4.0.osexp","C:\Users\etp-cp-ping\Desktop\LocalPC-EXP",75,"no","mono","no",18,"no","white","no","yes",1050,NA,100,"psycho",27,0,27,"C:/Users/etp-cp-ping/Desktop/LocalPC-EXP/subject-12.csv","psycho",13,28,28,"Lentiform Loewenfeld","3.3.8","['vert', 'hori', 'hori', 'hori', 'hori', 'vert', 'vert', 'vert']","yes",109,"circles","yes",0,NA,2,"legacy",NA,1024,2,48000,-16,"experiment",12,"even","green","no",2,"diamond",219408.785600001,219447.592500001,219447.6349,NA,224880.798100003,NA,NA,6009.16309999957,1589.03970000028,NA,6009.18470000033,321072.1806,324177.637600002,NA,NA,NA,NA,1589.11640000224,225190.418500002,NA,NA,321072.1949,225559.7499,321072.1299,"New experiment",19,"[0]","dist_present",56,34,"yes","yes",1680,NA,NA,NA,NA,"NR","NR","lp",NA,NA,NA,NA,NA,NA,"practice",6,"NR","in"
"29",1440.96190000349,45619.353000009,45619.353000009,14,14,"y",1,"['3', 'space']","n","#000000","no",325528.904000003,1,"neutral","psycho","psycho","psycho",0,"uniform",0,0,0,0,NA,0,0,NA,0,0,0,0,28,28,NA,NA,NA,NA,0,0,0,NA,28,0,28,73.2296414732588,"Fri Sep  3 15:05:09 2021","The main experiment item","yes","green","no","6","diamond",NA,"pinging_target_expectations 4.0.osexp","C:\Users\etp-cp-ping\Desktop\LocalPC-EXP",75,"no","mono","no",18,"no","white","no","yes",1050,NA,100,"psycho",28,0,28,"C:/Users/etp-cp-ping/Desktop/LocalPC-EXP/subject-12.csv","psycho",14,29,29,"Lentiform Loewenfeld","3.3.8","['vert', 'hori', 'vert', 'vert', 'hori', 'hori', 'vert', 'hori']","no",209,"None","yes",0,NA,2,"legacy",NA,1024,2,48000,-16,"experiment",12,"even","red","no",7,"circle",219408.785600001,219447.592500001,219447.6349,NA,224880.798100003,NA,NA,6009.16309999957,1589.03970000028,NA,6009.18470000033,324208.0446,327505.6305,NA,NA,NA,NA,1589.11640000224,225190.418500002,NA,NA,324208.059200002,225559.7499,324207.994,"New experiment",19,"[0, 77.80469711756405, 87.81082990237981, 100.39972849045846, 120.33287165193059, 135.91541110047132, 145.0148451368319, 168.21808780841098, 194.2335240132005, 219.36383104024486, 241.7109761597402, 260.6823528537281, 292.13303221015855, 317.58421999071453, 340.49412623421273, 370.6516012138926, 402.25253239642393, 431.2918512584197, 465.34541079204274, 493.65488660138965, 521.2589311496, 560.2656577777695, 592.4751533679696, 634.7009426429096, 658.7076455563983, 709.3682664844251, 730.1880673221583, 749.0961220030445]","dist_present",56,87,"yes","no",1680,NA,NA,NA,NA,"NR","NR","lp",NA,NA,NA,NA,NA,NA,"practice",2,"NR","in"
"30",819.920699999784,46439.2737000088,46439.2737000088,14,14,"y",1,"['3', 'space']","n","#000000","no",325528.904000003,1,"neutral","psycho","psycho","psycho",0,"uniform",0,0,0,0,NA,0,0,NA,0,0,0,0,29,29,NA,NA,NA,NA,0,0,0,NA,29,0,29,73.2296414732588,"Fri Sep  3 15:05:09 2021","The main experiment item","yes","red","no","6","diamond",NA,"pinging_target_expectations 4.0.osexp","C:\Users\etp-cp-ping\Desktop\LocalPC-EXP",75,"no","mono","no",18,"no","white","no","yes",1050,NA,100,"psycho",29,0,29,"C:/Users/etp-cp-ping/Desktop/LocalPC-EXP/subject-12.csv","psycho",14,30,30,"Lentiform Loewenfeld","3.3.8","['vert', 'hori', 'vert', 'hori', 'vert', 'hori', 'hori', 'vert']","no",209,"None","yes",0,NA,2,"legacy",NA,1024,2,48000,-16,"experiment",12,"even","green","no",0,"circle",219408.785600001,219447.592500001,219447.6349,NA,224880.798100003,NA,NA,6009.16309999957,1589.03970000028,NA,6009.18470000033,327536.221500002,330273.607900002,NA,NA,NA,NA,1589.11640000224,225190.418500002,NA,NA,327536.235900003,225559.7499,327536.172200002,"New experiment",19,"[0]","dist_present",56,17,"yes","yes",1680,NA,NA,NA,NA,"NR","R","lp","Right",NA,"Right",NA,NA,NA,"practice",7,"NR","in"
"31",794.089700000826,47233.3634000096,47233.3634000096,15,15,"y",1,"['3', 'space']","n","#000000","no",325528.904000003,1,"neutral","psycho","psycho","psycho",0,"uniform",1,0,0,0,NA,0,0,NA,0,0,0,0,30,30,NA,NA,NA,NA,0,0,0,NA,30,0,30,73.2296414732588,"Fri Sep  3 15:05:09 2021","The main experiment item","yes","red","no","3","diamond",NA,"pinging_target_expectations 4.0.osexp","C:\Users\etp-cp-ping\Desktop\LocalPC-EXP",75,"no","mono","no",18,"no","white","no","yes",1050,NA,100,"psycho",30,0,30,"C:/Users/etp-cp-ping/Desktop/LocalPC-EXP/subject-12.csv","psycho",14,31,31,"Lentiform Loewenfeld","3.3.8","['hori', 'vert', 'vert', 'hori', 'hori', 'vert', 'vert', 'hori']","no",209,"None","yes",0,NA,2,"legacy",NA,1024,2,48000,-16,"experiment",12,"even","green","no",0,"circle",219408.785600001,219447.592500001,219447.6349,NA,224880.798100003,NA,NA,6009.16309999957,1589.03970000028,NA,6009.18470000033,330304.3555,333073.650800001,NA,NA,NA,NA,1589.11640000224,225190.418500002,NA,NA,330304.3698,225559.7499,330304.303600002,"New experiment",19,"[0, 73.46971417780209, 73.66984653888757, 73.50844289439112, 73.26563757931196, 73.32899415836476, 73.27978904793909, 73.25038146665449, 74.09576606546707, 74.13266339628402, 73.49830478089143, 73.87041754902525, 75.28191709990494, 74.853574413916, 73.49862682071983, 73.9058878162393, 77.18037802416598, 73.97959366149972, 73.8664367360062, 74.41133246304979, 73.27551375137597, 73.63401653525301, 74.82385498557517]","dist_present",56,14,"yes","yes",1680,NA,NA,NA,NA,"R","NR","lp","Left",NA,NA,NA,NA,NA,"practice",0,"NR","in"
"32",2000.45719999983,49233.8206000094,49233.8206000094,15,15,"y",1,"['3', 'space']","n","#000000","no",325528.904000003,1,"neutral","psycho","psycho","psycho",0,"uniform",0,0,0,0,NA,0,0,NA,0,0,0,0,31,31,NA,NA,NA,NA,0,0,0,NA,31,0,31,73.2296414732588,"Fri Sep  3 15:05:09 2021","The main experiment item","yes","green","no","None","diamond",NA,"pinging_target_expectations 4.0.osexp","C:\Users\etp-cp-ping\Desktop\LocalPC-EXP",75,"no","mono","no",18,"no","white","no","yes",1050,NA,100,"psycho",31,0,31,"C:/Users/etp-cp-ping/Desktop/LocalPC-EXP/subject-12.csv","psycho",14,32,32,"Lentiform Loewenfeld","3.3.8","['hori', 'vert', 'vert', 'hori', 'vert', 'hori', 'vert', 'hori']","yes",109,"circles","yes",0,NA,2,"legacy",NA,1024,2,48000,-16,"experiment",12,"even","red","no",5,"circle",219408.785600001,219447.592500001,219447.6349,NA,224880.798100003,NA,NA,6009.16309999957,1589.03970000028,NA,6009.18470000033,333104.099,336951.747000003,NA,NA,NA,NA,1589.11640000224,225190.418500002,NA,NA,333104.1133,225559.7499,333104.0488,"New experiment",19,"[0, 73.61204070409536, 73.56391413519819, 73.80548760085526, 73.5555785345038, 73.48967639486101, 74.8890309103024, 73.84344054104092, 73.38424985118326, 74.90026298853789]","dist_absent",56,69,"yes","yes",1680,NA,NA,NA,NA,"NR","NR","lp",NA,"Right",NA,NA,NA,NA,"practice",0,"R","in"
"33",2000.14750000264,51233.968100012,51233.968100012,15,15,"y",1,"['3', 'space']","n","#000000","no",325528.904000003,1,"neutral","psycho","psycho","psycho",0,"uniform",0,0,0,0,NA,0,0,NA,0,0,0,0,32,32,NA,NA,NA,NA,0,0,0,NA,32,0,32,73.2296414732588,"Fri Sep  3 15:05:09 2021","The main experiment item","yes","green","no","None","circle",NA,"pinging_target_expectations 4.0.osexp","C:\Users\etp-cp-ping\Desktop\LocalPC-EXP",75,"no","mono","no",18,"no","white","no","yes",1050,NA,100,"psycho",32,0,32,"C:/Users/etp-cp-ping/Desktop/LocalPC-EXP/subject-12.csv","psycho",14,33,33,"Lentiform Loewenfeld","3.3.8","['hori', 'vert', 'hori', 'vert', 'hori', 'hori', 'vert', 'vert']","yes",109,"circles","yes",0,NA,2,"legacy",NA,1024,2,48000,-16,"experiment",12,"even","red","no",3,"diamond",219408.785600001,219447.592500001,219447.6349,NA,224880.798100003,NA,NA,6009.16309999957,1589.03970000028,NA,6009.18470000033,336981.964300001,340756.3562,NA,NA,NA,NA,1589.11640000224,225190.418500002,NA,NA,336981.9785,225559.7499,336981.915800003,"New experiment",19,"[0]","dist_absent",56,49,"yes","yes",1680,NA,NA,NA,NA,"NR","R","lp",NA,"Left",NA,NA,NA,NA,"practice",5,"NR","in"
"34",1332.94490000117,52566.9130000132,52566.9130000132,16,16,"y",1,"['3', 'space']","n","#000000","no",325528.904000003,1,"neutral","psycho","psycho","psycho",0,"uniform",1,0,0,0,NA,0,0,NA,0,0,0,0,33,33,NA,NA,NA,NA,0,0,0,NA,33,0,33,73.2296414732588,"Fri Sep  3 15:05:09 2021","The main experiment item","yes","green","no","None","circle",NA,"pinging_target_expectations 4.0.osexp","C:\Users\etp-cp-ping\Desktop\LocalPC-EXP",75,"no","mono","no",18,"no","white","no","yes",1050,NA,100,"psycho",33,0,33,"C:/Users/etp-cp-ping/Desktop/LocalPC-EXP/subject-12.csv","psycho",14,34,34,"Lentiform Loewenfeld","3.3.8","['hori', 'hori', 'vert', 'vert', 'hori', 'hori', 'vert', 'vert']","yes",109,"circles","yes",0,NA,2,"legacy",NA,1024,2,48000,-16,"experiment",12,"even","red","no",3,"diamond",219408.785600001,219447.592500001,219447.6349,NA,224880.798100003,NA,NA,6009.16309999957,1589.03970000028,NA,6009.18470000033,340786.657100001,343889.584100001,NA,NA,NA,NA,1589.11640000224,225190.418500002,NA,NA,340786.6713,225559.7499,340786.6029,"New experiment",19,"[0]","dist_absent",56,49,"yes","yes",1680,NA,NA,NA,NA,"R","R","lp",NA,"Left",NA,NA,NA,NA,"practice",3,"NR","in"
"35",1821.58590000111,54388.4989000143,54388.4989000143,17,17,"y",1,"['3', 'space']","n","#000000","no",325528.904000003,1,"neutral","psycho","psycho","psycho",0,"uniform",1,0,0,0,NA,0,0,NA,0,0,0,0,34,34,NA,NA,NA,NA,0,0,0,NA,34,0,34,73.2296414732588,"Fri Sep  3 15:05:09 2021","The main experiment item","yes","green","no","0","diamond",NA,"pinging_target_expectations 4.0.osexp","C:\Users\etp-cp-ping\Desktop\LocalPC-EXP",75,"no","mono","no",18,"no","white","no","yes",1050,NA,100,"psycho",34,0,34,"C:/Users/etp-cp-ping/Desktop/LocalPC-EXP/subject-12.csv","psycho",14,35,35,"Lentiform Loewenfeld","3.3.8","['hori', 'hori', 'vert', 'vert', 'vert', 'vert', 'hori', 'hori']","no",209,"None","yes",0,NA,2,"legacy",NA,1024,2,48000,-16,"experiment",12,"even","red","no",4,"circle",219408.785600001,219447.592500001,219447.6349,NA,224880.798100003,NA,NA,6009.16309999957,1589.03970000028,NA,6009.18470000033,343919.954700003,347761.737200002,NA,NA,NA,NA,1589.11640000224,225190.418500002,NA,NA,343919.969000002,225559.7499,343919.905000002,"New experiment",19,"[0]","dist_present",56,51,"yes","yes",1680,NA,NA,NA,NA,"NR","NR","lp",NA,NA,NA,NA,NA,NA,"practice",3,"R","in"
"36",1446.81670000136,55835.3156000157,55835.3156000157,18,18,"y",1,"['3', 'space']","n","#000000","no",348582.876800003,1,"neutral","psycho","psycho","psycho",0,"uniform",1,0,0,0,NA,0,0,NA,0,0,0,0,35,35,NA,NA,NA,NA,0,0,0,NA,35,0,35,73.2296414732588,"Fri Sep  3 15:05:09 2021","The main experiment item","yes","red","no","4","diamond",NA,"pinging_target_expectations 4.0.osexp","C:\Users\etp-cp-ping\Desktop\LocalPC-EXP",75,"no","mono","no",18,"no","white","no","yes",1050,NA,100,"psycho",35,0,35,"C:/Users/etp-cp-ping/Desktop/LocalPC-EXP/subject-12.csv","psycho",15,36,36,"Lentiform Loewenfeld","3.3.8","['vert', 'vert', 'hori', 'hori', 'vert', 'hori', 'vert', 'hori']","yes",109,"circles","yes",0,NA,2,"legacy",NA,1024,2,48000,-16,"experiment",12,"even","green","no",7,"circle",219408.785600001,219447.592500001,219447.6349,NA,224880.798100003,NA,NA,6009.16309999957,1589.03970000028,NA,6009.18470000033,347792.374500001,351105.606600002,NA,NA,NA,NA,1589.11640000224,225190.418500002,NA,NA,347792.389000002,225559.7499,347792.322700003,"New experiment",19,"[0, 74.02229435133648, 80.82729783430878, 88.75680318885917, 100.4245393346969, 115.50017978670799, 128.92297805286623, 143.59476953188374, 166.99747629783016, 186.79574791849635, 201.7875439068952, 221.55642622140303, 247.7346296514001, 272.4855274253122, 298.1238764146159, 322.74968130461065, 356.97891076977584, 381.6239359324348, 415.9570178377529, 447.4078777439926, 479.24684856845255, 523.1640367612745, 563.7669357298868, 610.546296572823, 648.5887506771016, 699.0155468313385, 749.2235244259372]","dist_present",56,85,"yes","no",1680,NA,NA,NA,NA,"NR","NR","lp",NA,"Right",NA,NA,NA,NA,"practice",4,"NR","in"
"37",1680.55979999912,57515.8754000148,57515.8754000148,19,19,"y",1,"['3', 'space']","n","#000000","no",348582.876800003,1,"neutral","psycho","psycho","psycho",0,"uniform",1,0,0,0,NA,0,0,NA,0,0,0,0,36,36,NA,NA,NA,NA,0,0,0,NA,36,0,36,73.2296414732588,"Fri Sep  3 15:05:09 2021","The main experiment item","yes","green","no","None","diamond",NA,"pinging_target_expectations 4.0.osexp","C:\Users\etp-cp-ping\Desktop\LocalPC-EXP",75,"no","mono","no",18,"no","white","no","yes",1050,NA,100,"psycho",36,0,36,"C:/Users/etp-cp-ping/Desktop/LocalPC-EXP/subject-12.csv","psycho",15,37,37,"Lentiform Loewenfeld","3.3.8","['hori', 'hori', 'vert', 'vert', 'vert', 'hori', 'vert', 'hori']","yes",109,"diamond","yes",0,NA,2,"legacy",NA,1024,2,48000,-16,"experiment",12,"even","red","no",1,"circle",219408.785600001,219447.592500001,219447.6349,NA,224880.798100003,NA,NA,6009.16309999957,1589.03970000028,NA,6009.18470000033,351136.308100002,354513.580300001,NA,NA,NA,NA,1589.11640000224,225190.418500002,NA,NA,351136.322500002,225559.7499,351136.257900001,"New experiment",19,"[0]","dist_absent",56,29,"yes","yes",1680,NA,NA,NA,NA,"NR","NR","lp",NA,"Left",NA,NA,NA,NA,"practice",7,"NR","in"
"38",1100.55550000106,58616.4309000159,58616.4309000159,20,20,"y",1,"['3', 'space']","n","#000000","no",348582.876800003,1,"neutral","psycho","psycho","psycho",0,"uniform",1,0,0,0,NA,0,0,NA,0,0,0,0,37,37,NA,NA,NA,NA,0,0,0,NA,37,0,37,73.2296414732588,"Fri Sep  3 15:05:09 2021","The main experiment item","yes","green","no","6","circle",NA,"pinging_target_expectations 4.0.osexp","C:\Users\etp-cp-ping\Desktop\LocalPC-EXP",75,"no","mono","no",18,"no","white","no","yes",1050,NA,100,"psycho",37,0,37,"C:/Users/etp-cp-ping/Desktop/LocalPC-EXP/subject-12.csv","psycho",15,38,38,"Lentiform Loewenfeld","3.3.8","['hori', 'vert', 'vert', 'hori', 'vert', 'vert', 'hori', 'hori']","no",209,"None","yes",0,NA,2,"legacy",NA,1024,2,48000,-16,"experiment",12,"even","red","no",0,"diamond",219408.785600001,219447.592500001,219447.6349,NA,224880.798100003,NA,NA,6009.16309999957,1589.03970000028,NA,6009.18470000033,354544.276600001,357505.6129,NA,NA,NA,NA,1589.11640000224,225190.418500002,NA,NA,354544.291100003,225559.7499,354544.226500002,"New experiment",19,"[0]","dist_present",56,17,"yes","yes",1680,NA,NA,NA,NA,"NR","NR","lp","Right",NA,"Right",NA,NA,NA,"practice",1,"NR","in"
"39",924.968100000056,59541.3990000159,59541.3990000159,21,21,"y",1,"['3', 'space']","n","#000000","no",348582.876800003,1,"neutral","psycho","psycho","psycho",0,"uniform",1,0,0,0,NA,0,0,NA,0,0,0,0,38,38,NA,NA,NA,NA,0,0,0,NA,38,0,38,73.2296414732588,"Fri Sep  3 15:05:09 2021","The main experiment item","yes","red","no","3","circle",NA,"pinging_target_expectations 4.0.osexp","C:\Users\etp-cp-ping\Desktop\LocalPC-EXP",75,"no","mono","no",18,"no","white","no","yes",1050,NA,100,"psycho",38,0,38,"C:/Users/etp-cp-ping/Desktop/LocalPC-EXP/subject-12.csv","psycho",15,39,39,"Lentiform Loewenfeld","3.3.8","['hori', 'hori', 'vert', 'hori', 'vert', 'hori', 'vert', 'vert']","no",209,"None","yes",0,NA,2,"legacy",NA,1024,2,48000,-16,"experiment",12,"even","green","no",4,"diamond",219408.785600001,219447.592500001,219447.6349,NA,224880.798100003,NA,NA,6009.16309999957,1589.03970000028,NA,6009.18470000033,357536.3411,360353.580800002,NA,NA,NA,NA,1589.11640000224,225190.418500002,NA,NA,357536.355300002,225559.7499,357536.288900003,"New experiment",19,"[0]","dist_present",56,54,"yes","yes",1680,NA,NA,NA,NA,"NR","NR","lp","Left",NA,NA,NA,NA,NA,"practice",0,"NR","in"
"40",1746.19979999989,61287.5988000158,61287.5988000158,22,22,"y",1,"['3', 'space']","n","#000000","no",361222.154500003,1,"neutral","psycho","psycho","psycho",0,"uniform",1,0,0,0,NA,0,0,NA,0,0,0,0,39,39,NA,NA,NA,NA,0,0,0,NA,39,0,39,73.2296414732588,"Fri Sep  3 15:05:09 2021","The main experiment item","yes","red","no","None","diamond",NA,"pinging_target_expectations 4.0.osexp","C:\Users\etp-cp-ping\Desktop\LocalPC-EXP",75,"no","mono","no",18,"no","white","no","yes",1050,NA,100,"psycho",39,0,39,"C:/Users/etp-cp-ping/Desktop/LocalPC-EXP/subject-12.csv","psycho",16,40,40,"Lentiform Loewenfeld","3.3.8","['vert', 'hori', 'hori', 'hori', 'vert', 'vert', 'hori', 'vert']","yes",109,"circles","yes",0,NA,2,"legacy",NA,1024,2,48000,-16,"experiment",12,"even","green","no",7,"circle",219408.785600001,219447.592500001,219447.6349,NA,224880.798100003,NA,NA,6009.16309999957,1589.03970000028,NA,6009.18470000033,360384.262200001,364193.679,NA,NA,NA,NA,1589.11640000224,225190.418500002,NA,NA,360384.2769,225559.7499,360384.210700002,"New experiment",19,"[0, 81.88559844631351, 87.1964033312547, 105.59913396769764, 118.92326341202782, 135.82339391996595, 156.586736989991, 173.11278397785256, 194.3494541781793, 217.8824495261714, 243.05418060480457, 275.0235221518638, 298.7907842723959, 330.1359400069578, 360.9528663598597, 396.70989352006274, 430.050647805273, 454.4782303534847, 497.90254317241533, 531.464250914396, 575.9620056209835, 612.6059102828488, 654.1778245722732, 700.2188132614788, 748.7041250619419]","dist_absent",56,89,"yes","no",1680,NA,NA,NA,NA,"NR","NR","lp",NA,"Right",NA,NA,NA,NA,"practice",4,"NR","in"
"41",1048.90750000055,62336.5063000164,62336.5063000164,23,23,"y",1,"['3', 'space']","n","#000000","no",364901.229300001,1,"neutral","psycho","psycho","psycho",0,"uniform",1,0,0,0,NA,0,0,NA,0,0,0,0,40,40,NA,NA,NA,NA,0,0,0,NA,40,0,40,73.2296414732588,"Fri Sep  3 15:05:09 2021","The main experiment item","yes","green","no","2","circle",NA,"pinging_target_expectations 4.0.osexp","C:\Users\etp-cp-ping\Desktop\LocalPC-EXP",75,"no","mono","no",18,"no","white","no","yes",1050,NA,100,"psycho",40,0,40,"C:/Users/etp-cp-ping/Desktop/LocalPC-EXP/subject-12.csv","psycho",17,41,41,"Lentiform Loewenfeld","3.3.8","['vert', 'hori', 'vert', 'hori', 'vert', 'hori', 'vert', 'hori']","yes",109,"diamond","yes",0,NA,2,"legacy",NA,1024,2,48000,-16,"experiment",12,"even","red","no",6,"diamond",219408.785600001,219447.592500001,219447.6349,NA,224880.798100003,NA,NA,6009.16309999957,1589.03970000028,NA,6009.18470000033,364224.3743,367249.8715,NA,NA,NA,NA,1589.11640000224,225190.418500002,NA,NA,364224.388900002,225559.7499,364224.3251,"New experiment",19,"[0, 82.38495577167167, 88.62105834632096, 103.52278204032376, 119.71322014767519, 138.31500502561002, 149.52489908633308, 165.59618488284883, 188.00560901472286, 208.60774139640301, 226.10563655476864, 253.7044465393695, 275.8040668057701, 296.3122893705753, 323.721157778055, 348.7169908388566, 371.8284317284012, 396.0620415192833, 425.8985764038355, 457.00819040383965, 481.3770697552319, 513.6402342346361, 548.1065101152013, 584.4725157544757, 620.7393000098035, 654.4624446968327, 691.3199776454474, 724.3990612914956]","dist_present",56,73,"yes","no",1680,NA,NA,NA,NA,"NR","NR","lp",NA,NA,NA,NA,NA,NA,"practice",7,"NR","in"
"42",2000.96109999868,64337.467400015,64337.467400015,23,23,"y",1,"['3', 'space']","n","#000000","no",364901.229300001,1,"neutral","psycho","psycho","psycho",0,"uniform",0,0,0,0,NA,0,0,NA,0,0,0,0,41,41,NA,NA,NA,NA,0,0,0,NA,41,0,41,73.2296414732588,"Fri Sep  3 15:05:09 2021","The main experiment item","yes","red","no","1","circle",NA,"pinging_target_expectations 4.0.osexp","C:\Users\etp-cp-ping\Desktop\LocalPC-EXP",75,"no","mono","no",18,"no","white","no","yes",1050,NA,100,"psycho",41,0,41,"C:/Users/etp-cp-ping/Desktop/LocalPC-EXP/subject-12.csv","psycho",17,42,42,"Lentiform Loewenfeld","3.3.8","['hori', 'vert', 'hori', 'vert', 'vert', 'vert', 'hori', 'hori']","no",209,"None","yes",0,NA,2,"legacy",NA,1024,2,48000,-16,"experiment",12,"even","green","no",5,"diamond",219408.785600001,219447.592500001,219447.6349,NA,224880.798100003,NA,NA,6009.16309999957,1589.03970000028,NA,6009.18470000033,367280.532000001,371148.567,NA,NA,NA,NA,1589.11640000224,225190.418500002,NA,NA,367280.546500002,225559.7499,367280.481900001,"New experiment",19,"[0]","dist_present",56,62,"yes","yes",1680,NA,NA,NA,NA,"NR","NR","lp",NA,NA,NA,NA,NA,NA,"practice",6,"NR","in"
"43",1278.61090000079,65616.0783000158,65616.0783000158,24,24,"y",1,"['3', 'space']","n","#000000","no",371692.837900002,1,"neutral","psycho","psycho","psycho",0,"uniform",1,0,0,0,NA,0,0,NA,0,0,0,0,42,42,NA,NA,NA,NA,0,0,0,NA,42,0,42,73.2296414732588,"Fri Sep  3 15:05:09 2021","The main experiment item","yes","red","no","7","circle",NA,"pinging_target_expectations 4.0.osexp","C:\Users\etp-cp-ping\Desktop\LocalPC-EXP",75,"no","mono","no",18,"no","white","no","yes",1050,NA,100,"psycho",42,0,42,"C:/Users/etp-cp-ping/Desktop/LocalPC-EXP/subject-12.csv","psycho",18,43,43,"Lentiform Loewenfeld","3.3.8","['vert', 'hori', 'vert', 'hori', 'vert', 'hori', 'hori', 'vert']","yes",109,"circles","yes",0,NA,2,"legacy",NA,1024,2,48000,-16,"experiment",12,"even","green","no",6,"diamond",219408.785600001,219447.592500001,219447.6349,NA,224880.798100003,NA,NA,6009.16309999957,1589.03970000028,NA,6009.18470000033,371179.1027,374529.656700001,NA,NA,NA,NA,1589.11640000224,225190.418500002,NA,NA,371179.116900003,225559.7499,371179.053200001,"New experiment",19,"[0]","dist_present",56,78,"yes","no",1680,NA,NA,NA,NA,"NR","NR","lp",NA,NA,NA,NA,NA,NA,"practice",5,"NR","in"
"44",2000.60630000004,67616.6846000159,67616.6846000159,24,24,"y",1,"['3', 'space']","n","#000000","no",371692.837900002,1,"neutral","psycho","psycho","psycho",0,"uniform",0,0,0,0,NA,0,0,NA,0,0,0,0,43,43,NA,NA,NA,NA,0,0,0,NA,43,0,43,73.2296414732588,"Fri Sep  3 15:05:09 2021","The main experiment item","yes","green","no","None","diamond",NA,"pinging_target_expectations 4.0.osexp","C:\Users\etp-cp-ping\Desktop\LocalPC-EXP",75,"no","mono","no",18,"no","white","no","yes",1050,NA,100,"psycho",43,0,43,"C:/Users/etp-cp-ping/Desktop/LocalPC-EXP/subject-12.csv","psycho",18,44,44,"Lentiform Loewenfeld","3.3.8","['vert', 'hori', 'hori', 'vert', 'hori', 'vert', 'vert', 'hori']","yes",109,"diamond","yes",0,NA,2,"legacy",NA,1024,2,48000,-16,"experiment",12,"even","red","no",2,"circle",219408.785600001,219447.592500001,219447.6349,NA,224880.798100003,NA,NA,6009.16309999957,1589.03970000028,NA,6009.18470000033,374561.6697,378424.4683,NA,NA,NA,NA,1589.11640000224,225190.418500002,NA,NA,374561.683899999,225559.7499,374561.619800003,"New experiment",19,"[0]","dist_absent",56,39,"yes","yes",1680,NA,NA,NA,NA,"NR","NR","lp",NA,"Left",NA,"Left",NA,NA,"practice",6,"NR","in"
"45",1929.67750000022,69546.3621000161,69546.3621000161,25,25,"y",1,"['3', 'space']","n","#000000","no",379272.503800003,1,"neutral","psycho","psycho","psycho",0,"uniform",1,0,0,0,NA,0,0,NA,0,0,0,0,44,44,NA,NA,NA,NA,0,0,0,NA,44,0,44,73.2296414732588,"Fri Sep  3 15:05:09 2021","The main experiment item","yes","red","no","None","diamond",NA,"pinging_target_expectations 4.0.osexp","C:\Users\etp-cp-ping\Desktop\LocalPC-EXP",75,"no","mono","no",18,"no","white","no","yes",1050,NA,100,"psycho",44,0,44,"C:/Users/etp-cp-ping/Desktop/LocalPC-EXP/subject-12.csv","psycho",19,45,45,"Lentiform Loewenfeld","3.3.8","['vert', 'vert', 'vert', 'hori', 'hori', 'vert', 'hori', 'hori']","no",209,"None","yes",0,NA,2,"legacy",NA,1024,2,48000,-16,"experiment",12,"even","green","no",1,"circle",219408.785600001,219447.592500001,219447.6349,NA,224880.798100003,NA,NA,6009.16309999957,1589.03970000028,NA,6009.18470000033,378454.957500002,382417.643600002,NA,NA,NA,NA,1589.11640000224,225190.418500002,NA,NA,378454.971900002,225559.7499,378454.907700001,"New experiment",19,"[0, 73.72848742784967, 73.50170066059697, 76.03079919847029, 81.48407470882324, 87.70861403854951, 97.8942706947829, 111.28421982926872, 126.81078724508829, 149.05562613540752, 167.24243028694136, 187.1081432240264, 210.67562734226112, 238.41998387496307, 266.2910486668637, 289.6892531930173, 312.7675571173533, 350.38379274275525, 380.64484759418457, 416.29948320505713, 450.70834475981644, 491.3095276582509, 520.9653450796185, 563.5622274830065, 596.2207406506687, 640.9880015852639, 683.750319926799, 722.7003939422611]","dist_absent",56,29,"yes","no",1680,NA,NA,NA,NA,"NR","R","lp",NA,"Left",NA,NA,NA,NA,"practice",2,"NR","in"
"46",2000.8873999978,71547.2495000139,71547.2495000139,25,25,"y",1,"['3', 'space']","n","#000000","no",383235.103999999,1,"neutral","psycho","psycho","psycho",0,"uniform",0,0,0,0,NA,0,0,NA,0,0,0,0,45,45,NA,NA,NA,NA,0,0,0,NA,45,0,45,73.2296414732588,"Fri Sep  3 15:05:09 2021","The main experiment item","yes","red","no","1","circle",NA,"pinging_target_expectations 4.0.osexp","C:\Users\etp-cp-ping\Desktop\LocalPC-EXP",75,"no","mono","no",18,"no","white","no","yes",1050,NA,100,"psycho",45,0,45,"C:/Users/etp-cp-ping/Desktop/LocalPC-EXP/subject-12.csv","psycho",20,46,46,"Lentiform Loewenfeld","3.3.8","['hori', 'vert', 'hori', 'vert', 'hori', 'vert', 'hori', 'vert']","no",209,"None","yes",0,NA,2,"legacy",NA,1024,2,48000,-16,"experiment",12,"even","green","no",5,"diamond",219408.785600001,219447.592500001,219447.6349,NA,224880.798100003,NA,NA,6009.16309999957,1589.03970000028,NA,6009.18470000033,382448.433699999,386363.047500003,NA,NA,NA,NA,1589.11640000224,225190.418500002,NA,NA,382448.4481,225559.7499,382448.3836,"New experiment",19,"[0]","dist_present",56,62,"yes","yes",1680,NA,NA,NA,NA,"NR","NR","lp",NA,NA,NA,NA,NA,NA,"practice",1,"NR","in"
"47",2000.19980000064,73547.4493000145,73547.4493000145,25,25,"y",1,"['3', 'space']","n","#000000","no",383235.103999999,1,"neutral","psycho","psycho","psycho",0,"uniform",0,0,0,0,NA,0,0,NA,0,0,0,0,46,46,NA,NA,NA,NA,0,0,0,NA,46,0,46,73.2296414732588,"Fri Sep  3 15:05:09 2021","The main experiment item","yes","green","no","0","circle",NA,"pinging_target_expectations 4.0.osexp","C:\Users\etp-cp-ping\Desktop\LocalPC-EXP",75,"no","mono","no",18,"no","white","no","yes",1050,NA,100,"psycho",46,0,46,"C:/Users/etp-cp-ping/Desktop/LocalPC-EXP/subject-12.csv","psycho",20,47,47,"Lentiform Loewenfeld","3.3.8","['hori', 'vert', 'vert', 'vert', 'hori', 'hori', 'vert', 'hori']","no",209,"None","yes",0,NA,2,"legacy",NA,1024,2,48000,-16,"experiment",12,"even","red","no",6,"diamond",219408.785600001,219447.592500001,219447.6349,NA,224880.798100003,NA,NA,6009.16309999957,1589.03970000028,NA,6009.18470000033,386393.9808,390359.720300003,NA,NA,NA,NA,1589.11640000224,225190.418500002,NA,NA,386393.995000002,225559.7499,386393.932400002,"New experiment",19,"[0]","dist_present",56,71,"yes","yes",1680,NA,NA,NA,NA,"NR","NR","lp",NA,"Right",NA,"Right",NA,NA,"practice",5,"NR","in"
"48",1177.56960000045,74725.018900015,74725.018900015,26,26,"y",1,"['3', 'space']","n","#000000","no",383235.103999999,1,"neutral","psycho","psycho","psycho",0,"uniform",1,0,0,0,NA,0,0,NA,0,0,0,0,47,47,NA,NA,NA,NA,0,0,0,NA,47,0,47,73.2296414732588,"Fri Sep  3 15:05:09 2021","The main experiment item","yes","red","no","0","circle",NA,"pinging_target_expectations 4.0.osexp","C:\Users\etp-cp-ping\Desktop\LocalPC-EXP",75,"no","mono","no",18,"no","white","no","yes",1050,NA,100,"psycho",47,0,47,"C:/Users/etp-cp-ping/Desktop/LocalPC-EXP/subject-12.csv","psycho",20,48,48,"Lentiform Loewenfeld","3.3.8","['vert', 'hori', 'vert', 'hori', 'hori', 'vert', 'hori', 'vert']","yes",109,"diamond","yes",0,NA,2,"legacy",NA,1024,2,48000,-16,"experiment",12,"even","green","no",1,"diamond",219408.785600001,219447.592500001,219447.6349,NA,224880.798100003,NA,NA,6009.16309999957,1589.03970000028,NA,6009.18470000033,390390.299000002,393473.609700002,NA,NA,NA,NA,1589.11640000224,225190.418500002,NA,NA,390390.313800002,225559.7499,390390.250800003,"New experiment",19,"[0, 73.93751723637142, 73.91865213726678, 74.29293144765582]","dist_present",56,21,"yes","yes",1680,NA,NA,NA,NA,"NR","R","lp",NA,"Left",NA,NA,NA,NA,"practice",6,"NR","in"
"49",1470.36330000265,76195.3822000176,76195.3822000176,27,27,"y",1,"['3', 'space']","n","#000000","no",383235.103999999,1,"neutral","psycho","psycho","psycho",0,"uniform",1,0,0,0,NA,0,0,NA,0,0,0,0,48,48,NA,NA,NA,NA,0,0,0,NA,48,0,48,73.2296414732588,"Fri Sep  3 15:05:09 2021","The main experiment item","yes","green","no","6","diamond",NA,"pinging_target_expectations 4.0.osexp","C:\Users\etp-cp-ping\Desktop\LocalPC-EXP",75,"no","mono","no",18,"no","white","no","yes",1050,NA,100,"psycho",48,0,48,"C:/Users/etp-cp-ping/Desktop/LocalPC-EXP/subject-12.csv","psycho",20,49,49,"Lentiform Loewenfeld","3.3.8","['hori', 'vert', 'vert', 'hori', 'hori', 'vert', 'vert', 'hori']","no",209,"None","yes",0,NA,2,"legacy",NA,1024,2,48000,-16,"experiment",12,"even","red","no",1,"circle",219408.785600001,219447.592500001,219447.6349,NA,224880.798100003,NA,NA,6009.16309999957,1589.03970000028,NA,6009.18470000033,393504.334900001,396833.713,NA,NA,NA,NA,1589.11640000224,225190.418500002,NA,NA,393504.3492,225559.7499,393504.284099999,"New experiment",19,"[0]","dist_present",56,27,"yes","yes",1680,NA,NA,NA,NA,"R","NR","lp",NA,NA,NA,NA,NA,NA,"practice",1,"NR","in"
"50",1982.59529999993,78177.9775000176,78177.9775000176,28,28,"y",1,"['3', 'space']","n","#000000","no",383235.103999999,1,"neutral","psycho","psycho","psycho",0,"uniform",1,0,0,0,NA,0,0,NA,0,0,0,0,49,49,NA,NA,NA,NA,0,0,0,NA,49,0,49,73.2296414732588,"Fri Sep  3 15:05:09 2021","The main experiment item","yes","green","no","None","diamond",NA,"pinging_target_expectations 4.0.osexp","C:\Users\etp-cp-ping\Desktop\LocalPC-EXP",75,"no","mono","no",18,"no","white","no","yes",1050,NA,100,"psycho",49,0,49,"C:/Users/etp-cp-ping/Desktop/LocalPC-EXP/subject-12.csv","psycho",20,50,50,"Lentiform Loewenfeld","3.3.8","['vert', 'hori', 'vert', 'hori', 'hori', 'vert', 'vert', 'hori']","yes",109,"diamond","yes",0,NA,2,"legacy",NA,1024,2,48000,-16,"experiment",12,"even","red","no",0,"circle",219408.785600001,219447.592500001,219447.6349,NA,224880.798100003,NA,NA,6009.16309999957,1589.03970000028,NA,6009.18470000033,396864.431100003,400881.6534,NA,NA,NA,NA,1589.11640000224,225190.418500002,NA,NA,396864.4456,225559.7499,396864.380700001,"New experiment",19,"[0]","dist_absent",56,19,"yes","yes",1680,NA,NA,NA,NA,"NR","NR","lp",NA,NA,NA,NA,NA,NA,"practice",1,"R","in"
"51",2000.95819999842,80178.935700016,80178.935700016,28,28,"y",1,"['3', 'space']","n","#000000","no",383235.103999999,1,"neutral","psycho","psycho","psycho",0,"uniform",0,0,0,0,NA,0,0,NA,0,0,0,0,50,50,NA,NA,NA,NA,0,0,0,NA,50,0,50,73.2296414732588,"Fri Sep  3 15:05:09 2021","The main experiment item","yes","red","no","5","diamond",NA,"pinging_target_expectations 4.0.osexp","C:\Users\etp-cp-ping\Desktop\LocalPC-EXP",75,"no","mono","no",18,"no","white","no","yes",1050,NA,100,"psycho",50,0,50,"C:/Users/etp-cp-ping/Desktop/LocalPC-EXP/subject-12.csv","psycho",20,51,51,"Lentiform Loewenfeld","3.3.8","['vert', 'hori', 'hori', 'vert', 'hori', 'vert', 'hori', 'vert']","yes",109,"diamond","yes",0,NA,2,"legacy",NA,1024,2,48000,-16,"experiment",12,"even","green","no",3,"circle",219408.785600001,219447.592500001,219447.6349,NA,224880.798100003,NA,NA,6009.16309999957,1589.03970000028,NA,6009.18470000033,400912.373400002,404658.9623,NA,NA,NA,NA,1589.11640000224,225190.418500002,NA,NA,400912.387800003,225559.7499,400912.321,"New experiment",19,"[0]","dist_present",56,46,"yes","yes",1680,NA,NA,NA,NA,"NR","NR","lp",NA,NA,NA,NA,NA,NA,"practice",0,"NR","in"
"52",2000.61289999937,82179.5486000153,82179.5486000153,28,28,"y",1,"['3', 'space']","n","#000000","no",405651.565200002,1,"neutral","psycho","psycho","psycho",0,"uniform",0,0,0,0,NA,0,0,NA,0,0,0,0,51,51,NA,NA,NA,NA,0,0,0,NA,51,0,51,73.2296414732588,"Fri Sep  3 15:05:09 2021","The main experiment item","yes","green","no","4","circle",NA,"pinging_target_expectations 4.0.osexp","C:\Users\etp-cp-ping\Desktop\LocalPC-EXP",75,"no","mono","no",18,"no","white","no","yes",1050,NA,100,"psycho",51,0,51,"C:/Users/etp-cp-ping/Desktop/LocalPC-EXP/subject-12.csv","psycho",21,52,52,"Lentiform Loewenfeld","3.3.8","['hori', 'vert', 'hori', 'hori', 'vert', 'hori', 'vert', 'vert']","yes",109,"circles","yes",0,NA,2,"legacy",NA,1024,2,48000,-16,"experiment",12,"even","red","no",7,"diamond",219408.785600001,219447.592500001,219447.6349,NA,224880.798100003,NA,NA,6009.16309999957,1589.03970000028,NA,6009.18470000033,404689.554300003,408790.112900002,NA,NA,NA,NA,1589.11640000224,225190.418500002,NA,NA,404689.568500002,225559.7499,404689.5047,"New experiment",19,"[0]","dist_present",56,85,"yes","yes",1680,NA,NA,NA,NA,"NR","NR","lp",NA,"Right",NA,NA,NA,NA,"practice",3,"NR","in"
"53",2000.72780000122,84180.2764000166,84180.2764000166,28,28,"y",1,"['3', 'space']","n","#000000","no",405651.565200002,1,"neutral","psycho","psycho","psycho",0,"uniform",0,0,0,0,NA,0,0,NA,0,0,0,0,52,52,NA,NA,NA,NA,0,0,0,NA,52,0,52,73.2296414732588,"Fri Sep  3 15:05:09 2021","The main experiment item","yes","green","no","1","diamond",NA,"pinging_target_expectations 4.0.osexp","C:\Users\etp-cp-ping\Desktop\LocalPC-EXP",75,"no","mono","no",18,"no","white","no","yes",1050,NA,100,"psycho",52,0,52,"C:/Users/etp-cp-ping/Desktop/LocalPC-EXP/subject-12.csv","psycho",21,53,53,"Lentiform Loewenfeld","3.3.8","['hori', 'hori', 'vert', 'hori', 'vert', 'vert', 'vert', 'hori']","yes",109,"circles","yes",0,NA,2,"legacy",NA,1024,2,48000,-16,"experiment",12,"even","red","no",4,"circle",219408.785600001,219447.592500001,219447.6349,NA,224880.798100003,NA,NA,6009.16309999957,1589.03970000028,NA,6009.18470000033,408820.718300001,412633.140400001,NA,NA,NA,NA,1589.11640000224,225190.418500002,NA,NA,408820.733,225559.7499,408820.667800002,"New experiment",19,"[0]","dist_present",56,52,"yes","yes",1680,NA,NA,NA,NA,"NR","NR","lp","Left",NA,NA,NA,NA,NA,"practice",7,"NR","in"
"54",2000.2353999989,86180.5118000155,86180.5118000155,28,28,"y",1,"['3', 'space']","n","#000000","no",414396.791800002,1,"neutral","psycho","psycho","psycho",0,"uniform",0,0,0,0,NA,0,0,NA,0,0,0,0,53,53,NA,NA,NA,NA,0,0,0,NA,53,0,53,73.2296414732588,"Fri Sep  3 15:05:09 2021","The main experiment item","yes","red","no","4","circle",NA,"pinging_target_expectations 4.0.osexp","C:\Users\etp-cp-ping\Desktop\LocalPC-EXP",75,"no","mono","no",18,"no","white","no","yes",1050,NA,100,"psycho",53,0,53,"C:/Users/etp-cp-ping/Desktop/LocalPC-EXP/subject-12.csv","psycho",22,54,54,"Lentiform Loewenfeld","3.3.8","['vert', 'hori', 'hori', 'hori', 'vert', 'vert', 'vert', 'hori']","no",209,"None","yes",0,NA,2,"legacy",NA,1024,2,48000,-16,"experiment",12,"even","green","no",2,"diamond",219408.785600001,219447.592500001,219447.6349,NA,224880.798100003,NA,NA,6009.16309999957,1589.03970000028,NA,6009.18470000033,412663.599800002,416572.157900002,NA,NA,NA,NA,1589.11640000224,225190.418500002,NA,NA,412663.6139,225559.7499,412663.551699999,"New experiment",19,"[0, 73.24724264221894, 82.36003660686416, 102.88677427304566, 121.64636593308784, 147.20939820183327, 178.14088633927747, 196.60896101094932, 233.7410153478848, 262.5972357808567, 291.57989501298346, 324.9443911071746, 362.8401612517394, 404.1821853872041, 440.198218845784, 472.32061234886834]","dist_present",56,35,"yes","no",1680,NA,NA,NA,NA,"NR","NR","lp",NA,"Left",NA,"Left",NA,NA,"practice",4,"NR","in"
"55",2000.882700002,88181.3945000175,88181.3945000175,28,28,"y",1,"['3', 'space']","n","#000000","no",414396.791800002,1,"neutral","psycho","psycho","psycho",0,"uniform",0,0,0,0,NA,0,0,NA,0,0,0,0,54,54,NA,NA,NA,NA,0,0,0,NA,54,0,54,73.2296414732588,"Fri Sep  3 15:05:09 2021","The main experiment item","yes","red","no","2","circle",NA,"pinging_target_expectations 4.0.osexp","C:\Users\etp-cp-ping\Desktop\LocalPC-EXP",75,"no","mono","no",18,"no","white","no","yes",1050,NA,100,"psycho",54,0,54,"C:/Users/etp-cp-ping/Desktop/LocalPC-EXP/subject-12.csv","psycho",22,55,55,"Lentiform Loewenfeld","3.3.8","['vert', 'hori', 'vert', 'hori', 'hori', 'vert', 'hori', 'vert']","no",209,"None","yes",0,NA,2,"legacy",NA,1024,2,48000,-16,"experiment",12,"even","green","no",1,"diamond",219408.785600001,219447.592500001,219447.6349,NA,224880.798100003,NA,NA,6009.16309999957,1589.03970000028,NA,6009.18470000033,416602.659800003,420513.068700002,NA,NA,NA,NA,1589.11640000224,225190.418500002,NA,NA,416602.673900001,225559.7499,416602.609699999,"New experiment",19,"[0]","dist_present",56,23,"yes","yes",1680,NA,NA,NA,NA,"NR","NR","lp",NA,NA,NA,NA,NA,NA,"practice",2,"NR","in"
"56",2000.0462999997,90181.4408000172,90181.4408000172,28,28,"y",1,"['3', 'space']","n","#000000","no",414396.791800002,1,"neutral","psycho","psycho","psycho",0,"uniform",0,0,0,0,NA,0,0,NA,0,0,0,0,55,55,NA,NA,NA,NA,0,0,0,NA,55,0,55,73.2296414732588,"Fri Sep  3 15:05:09 2021","The main experiment item","yes","red","no","7","diamond",NA,"pinging_target_expectations 4.0.osexp","C:\Users\etp-cp-ping\Desktop\LocalPC-EXP",75,"no","mono","no",18,"no","white","no","yes",1050,NA,100,"psycho",55,0,55,"C:/Users/etp-cp-ping/Desktop/LocalPC-EXP/subject-12.csv","psycho",22,56,56,"Lentiform Loewenfeld","3.3.8","['vert', 'vert', 'vert', 'hori', 'hori', 'hori', 'vert', 'hori']","no",209,"None","yes",0,NA,2,"legacy",NA,1024,2,48000,-16,"experiment",12,"even","green","no",3,"circle",219408.785600001,219447.592500001,219447.6349,NA,224880.798100003,NA,NA,6009.16309999957,1589.03970000028,NA,6009.18470000033,420543.586200001,424258.903900001,NA,NA,NA,NA,1589.11640000224,225190.418500002,NA,NA,420543.600700003,225559.7499,420543.531400002,"New experiment",19,"[0]","dist_present",56,48,"yes","yes",1680,NA,NA,NA,NA,"NR","NR","lp",NA,NA,NA,NA,NA,NA,"practice",1,"NR","in"
"57",2000.31859999942,2000.31859999942,92181.7594000166,0,28,"y",1,"['3', 'space']","n","#000000","no",414396.791800002,2,"bias","psycho","psycho","psycho",0,"uniform",0,0,1,1,NA,1,0,NA,0,0,1,0,56,56,NA,NA,NA,NA,0,1,1,NA,56,1,56,73.2296414732588,"Fri Sep  3 15:05:09 2021","The main experiment item","yes","green","no","1","circle",NA,"pinging_target_expectations 4.0.osexp","C:\Users\etp-cp-ping\Desktop\LocalPC-EXP",75,"no","mono","no",18,"no","white","no","yes",1050,NA,4,"psycho",0,1,0,"C:/Users/etp-cp-ping/Desktop/LocalPC-EXP/subject-12.csv","psycho",0,57,1,"Lentiform Loewenfeld","3.3.8","['vert', 'vert', 'hori', 'hori', 'hori', 'vert', 'hori', 'vert']","no",204,"None","no",0,NA,2,"legacy",NA,1024,2,48000,-16,"experiment",12,"even","red","yes",4,"diamond",219408.785600001,485741.175400002,485741.224500001,NA,498886.020900001,NA,NA,6009.16309999957,1589.03970000028,424795.3323,6009.18470000033,517316.952200003,521207.827000002,NA,NA,NA,NA,1589.11640000224,516783.1525,424288.646000001,NA,517316.9676,517312.659300002,517316.907300003,"New experiment",19,"[0, 73.7561767557116, 74.07093924426832, 74.88245789235485, 73.94713823353806, 75.2883894075972, 74.60534092497565, 75.99427206840875, 74.14722164245238, 74.00332116174854, 74.81084862030144, 74.92507207725518, 74.67260524203638, 74.94664769020693, 74.97948169854126, 74.9550743375384, 74.05537726166395, 74.57294149700854, 75.42950639219609, 74.91235188597356, 74.60203160851441, 74.03625079571087, 73.34612466863533, 75.5473439101282, 74.94480395689452, 73.52850388651473, 75.25705039419121, 75.51137214353001, 74.5163635880265, 74.63415318263924, 74.44923850362528, 74.57294149700854, 74.58378505849977, 73.81922188381255, 73.88477834568798, 74.82628956202342, 74.48228289390657, 73.24274708119569, 73.49319696407281, 74.8615388567454, 73.94952645811334, 75.68866268106406, 73.68162915941961, 75.20647025985137, 73.2645962803005, 73.60976836023234, 74.36357270078118, 75.36377084065295, 74.05246446876104, 75.12298662937852, 74.45087298207635, 74.63844831941165]","dist_present",56,52,"yes","yes",1680,-7.04195008811735,-6.47688972809681,"more away","False","NR","NR","lp","Left",NA,NA,NA,0,3,"first",999,"NR","in"
"58",746.855100001965,2747.17370000138,92928.6145000185,1,29,"y",1,"['3', 'space']","n","#000000","no",414396.791800002,2,"bias","psycho","psycho","psycho",0,"uniform",1,0,1,1,NA,1,0,NA,0,0,1,0,57,57,NA,NA,NA,NA,0,1,1,NA,57,1,57,73.2296414732588,"Fri Sep  3 15:05:09 2021","The main experiment item","yes","green","no","None","circle",NA,"pinging_target_expectations 4.0.osexp","C:\Users\etp-cp-ping\Desktop\LocalPC-EXP",75,"no","mono","no",18,"no","white","no","yes",1050,NA,4,"psycho",1,1,1,"C:/Users/etp-cp-ping/Desktop/LocalPC-EXP/subject-12.csv","psycho",0,58,2,"Lentiform Loewenfeld","3.3.8","['hori', 'hori', 'vert', 'hori', 'hori', 'vert', 'vert', 'vert']","yes",104,"circles","no",0,NA,2,"legacy",NA,1024,2,48000,-16,"experiment",12,"even","red","yes",4,"diamond",219408.785600001,485741.175400002,485741.224500001,NA,498886.020900001,NA,NA,6009.16309999957,1589.03970000028,424795.3323,6009.18470000033,521239.978000001,523745.660300003,NA,NA,NA,NA,1589.11640000224,516783.1525,424288.646000001,NA,521239.9921,517312.659300002,521239.930900003,"New experiment",19,"[0]","dist_absent",56,59,"yes","yes",1680,-27.4305750881172,-26.3615147280968,"more away","False","R","NR","hp",NA,NA,NA,NA,0,NA,"first",4,"NR","ex"
"59",788.872499997611,3536.04619999899,93717.4870000161,2,30,"y",1,"['3', 'space']","n","#000000","no",414396.791800002,2,"bias","psycho","psycho","psycho",0,"uniform",1,0,1,1,NA,1,0,NA,0,0,1,0,58,58,NA,NA,NA,NA,0,1,1,NA,58,1,58,73.2296414732588,"Fri Sep  3 15:05:09 2021","The main experiment item","yes","red","no","2","diamond",NA,"pinging_target_expectations 4.0.osexp","C:\Users\etp-cp-ping\Desktop\LocalPC-EXP",75,"no","mono","no",18,"no","white","no","yes",1050,NA,4,"psycho",2,1,2,"C:/Users/etp-cp-ping/Desktop/LocalPC-EXP/subject-12.csv","psycho",0,59,3,"Lentiform Loewenfeld","3.3.8","['hori', 'vert', 'hori', 'hori', 'vert', 'vert', 'vert', 'hori']","yes",104,"circles","no",0,NA,2,"legacy",NA,1024,2,48000,-16,"experiment",12,"even","green","yes",4,"circle",219408.785600001,485741.175400002,485741.224500001,NA,498886.020900001,NA,NA,6009.16309999957,1589.03970000028,424795.3323,6009.18470000033,523776.5153,526673.687099999,NA,NA,NA,NA,1589.11640000224,516783.1525,424288.646000001,NA,523776.532,517312.659300002,523776.464300001,"New experiment",19,"[0]","dist_present",56,53,"yes","yes",1680,-41.0738875881173,-24.3135147280968,"more away","False","R","NR","hp","Left",NA,"Left",NA,0,2,"first",4,"R","ex"
"60",2000.41469999996,5536.46089999896,95717.9017000161,2,30,"y",1,"['3', 'space']","n","#000000","no",414396.791800002,2,"bias","psycho","psycho","psycho",0,"uniform",0,0,1,1,NA,1,0,NA,0,0,1,0,59,59,NA,NA,NA,NA,0,1,1,NA,59,1,59,73.2296414732588,"Fri Sep  3 15:05:09 2021","The main experiment item","yes","green","no","6","diamond",NA,"pinging_target_expectations 4.0.osexp","C:\Users\etp-cp-ping\Desktop\LocalPC-EXP",75,"no","mono","no",18,"no","white","no","yes",1050,NA,4,"psycho",3,1,3,"C:/Users/etp-cp-ping/Desktop/LocalPC-EXP/subject-12.csv","psycho",0,60,4,"Lentiform Loewenfeld","3.3.8","['hori', 'vert', 'vert', 'vert', 'hori', 'vert', 'hori', 'hori']","no",204,"None","no",0,NA,2,"legacy",NA,1024,2,48000,-16,"experiment",12,"even","red","no",1,"circle",219408.785600001,485741.175400002,485741.224500001,NA,498886.020900001,NA,NA,6009.16309999957,1589.03970000028,424795.3323,6009.18470000033,526704.578500001,530720.590500001,NA,NA,NA,NA,1589.11640000224,516783.1525,424288.646000001,NA,526704.592900001,517312.659300002,526704.5277,"New experiment",19,"[0]","dist_present",56,27,"yes","yes",1680,-33.0849500881172,-15.7414522280968,"more away","False","NR","NR","hp",NA,NA,NA,NA,3,-2,"first",4,"R","in"
"61",1661.57670000033,7198.03759999928,97379.4784000164,3,31,"y",1,"['3', 'space']","n","#000000","no",414396.791800002,2,"bias","psycho","psycho","psycho",0,"uniform",1,0,1,1,NA,1,0,NA,0,0,1,0,60,60,NA,NA,NA,NA,0,1,1,NA,60,1,60,73.2296414732588,"Fri Sep  3 15:05:09 2021","The main experiment item","yes","red","yes","4","circle",NA,"pinging_target_expectations 4.0.osexp","C:\Users\etp-cp-ping\Desktop\LocalPC-EXP",75,"no","mono","no",18,"no","white","no","yes",1050,NA,4,"psycho",4,1,4,"C:/Users/etp-cp-ping/Desktop/LocalPC-EXP/subject-12.csv","psycho",0,61,5,"Lentiform Loewenfeld","3.3.8","['hori', 'hori', 'vert', 'hori', 'hori', 'vert', 'vert', 'vert']","no",204,"None","no",0,NA,2,"legacy",NA,1024,2,48000,-16,"experiment",12,"even","green","no",2,"diamond",219408.785600001,485741.175400002,485741.224500001,NA,498886.020900001,NA,NA,6009.16309999957,1589.03970000028,424795.3323,6009.18470000033,530751.449800002,534289.725300001,NA,NA,NA,NA,1589.11640000224,516783.1525,424288.646000001,NA,530751.466400001,517312.659300002,530751.275500003,"New experiment",19,"[0]","dist_present",56,35,"yes","yes",1680,-22.9663875881174,-5.41795222809679,"more away","False","NR","NR","lp",NA,"Left",NA,"Left",2,0,"first",1,"NR","in"
"62",1723.6608999992,8921.69849999849,99103.1393000156,4,32,"y",1,"['3', 'space']","n","#000000","no",414396.791800002,2,"bias","psycho","psycho","psycho",0,"uniform",1,0,1,1,NA,1,0,NA,0,0,1,0,61,61,NA,NA,NA,NA,0,1,1,NA,61,1,61,73.2296414732588,"Fri Sep  3 15:05:09 2021","The main experiment item","yes","green","no","7","circle",NA,"pinging_target_expectations 4.0.osexp","C:\Users\etp-cp-ping\Desktop\LocalPC-EXP",75,"no","mono","no",18,"no","white","no","yes",1050,NA,4,"psycho",5,1,5,"C:/Users/etp-cp-ping/Desktop/LocalPC-EXP/subject-12.csv","psycho",0,62,6,"Lentiform Loewenfeld","3.3.8","['hori', 'vert', 'vert', 'hori', 'hori', 'vert', 'vert', 'hori']","no",204,"None","no",0,NA,2,"legacy",NA,1024,2,48000,-16,"experiment",12,"even","red","no",3,"diamond",219408.785600001,485741.175400002,485741.224500001,NA,498886.020900001,NA,NA,6009.16309999957,1589.03970000028,424795.3323,6009.18470000033,534320.5671,537825.7935,NA,NA,NA,NA,1589.11640000224,516783.1525,424288.646000001,NA,534320.5815,517312.659300002,534320.515800002,"New experiment",19,"[0, 74.50747367085464, 83.000240992921, 95.55359793396138, 106.50468103571916, 113.12937588653668, 124.43847162439413, 136.82328186016068, 148.13789654103272, 154.91268419377815, 166.49276166698704, 172.77017873650775, 181.27364640336276, 185.60328114996784, 196.04959618688278, 197.10710640787553, 196.3011073543281, 199.77368602356444, 200.10497245196083, 199.47304288767276, 203.25777839969808, 200.5412682674589, 196.31681169527832, 194.07444269939867, 189.93919189744145, 188.63732237956359, 183.17298000258523, 175.63511676405378, 171.29290050574957, 166.94268797804992, 161.10913135831825, 158.85138739201614, 153.3901179705421, 143.22448337040527, 135.12498232973047, 130.12843334582823, 127.96123367730966, 124.0387185960023, 115.37321003063812, 107.61936161597133, 103.50557963051574, 95.20509052931943, 90.20090261206921, 82.02740846660242, 78.2849175319779]","dist_present",56,48,"yes","yes",1680,-27.7703250881173,4.1792977719032,"more toward","False","NR","NR","lp",NA,NA,NA,NA,1,-3,"first",2,"NR","in"
"63",2000.71709999978,10922.4155999983,101103.856400015,4,32,"y",1,"['3', 'space']","n","#000000","no",414396.791800002,2,"bias","psycho","psycho","psycho",0,"uniform",0,0,1,1,NA,1,0,NA,0,0,1,0,62,62,NA,NA,NA,NA,0,1,1,NA,62,1,62,73.2296414732588,"Fri Sep  3 15:05:09 2021","The main experiment item","yes","green","no","3","circle",NA,"pinging_target_expectations 4.0.osexp","C:\Users\etp-cp-ping\Desktop\LocalPC-EXP",75,"no","mono","no",18,"no","white","no","yes",1050,NA,4,"psycho",6,1,6,"C:/Users/etp-cp-ping/Desktop/LocalPC-EXP/subject-12.csv","psycho",0,63,7,"Lentiform Loewenfeld","3.3.8","['hori', 'vert', 'hori', 'hori', 'vert', 'vert', 'hori', 'vert']","no",204,"None","no",0,NA,2,"legacy",NA,1024,2,48000,-16,"experiment",12,"even","red","no",5,"diamond",219408.785600001,485741.175400002,485741.224500001,NA,498886.020900001,NA,NA,6009.16309999957,1589.03970000028,424795.3323,6009.18470000033,537857.014500001,541731.7845,NA,NA,NA,NA,1589.11640000224,516783.1525,424288.646000001,NA,537857.028800001,517312.659300002,537856.9651,"New experiment",19,"[0]","dist_present",56,64,"yes","yes",1680,-29.5932000881173,7.95754777190325,"more toward","False","NR","NR","lp",NA,NA,NA,NA,-1,1,"first",3,"NR","in"
"64",793.936300000525,11716.3518999988,101897.792700016,4,32,"y",1,"['3', 'space']","n","#000000","no",414396.791800002,2,"bias","psycho","psycho","psycho",0,"uniform",0,0,1,1,NA,1,0,NA,0,0,1,0,63,63,NA,NA,NA,NA,0,1,1,NA,63,1,63,73.2296414732588,"Fri Sep  3 15:05:09 2021","The main experiment item","yes","red","no","None","circle",NA,"pinging_target_expectations 4.0.osexp","C:\Users\etp-cp-ping\Desktop\LocalPC-EXP",75,"no","mono","no",18,"no","white","no","yes",1050,NA,4,"psycho",7,1,7,"C:/Users/etp-cp-ping/Desktop/LocalPC-EXP/subject-12.csv","psycho",0,64,8,"Lentiform Loewenfeld","3.3.8","['vert', 'vert', 'hori', 'hori', 'vert', 'vert', 'hori', 'hori']","no",204,"None","no",0,NA,2,"legacy",NA,1024,2,48000,-16,"experiment",12,"even","green","no",6,"diamond",219408.785600001,485741.175400002,485741.224500001,NA,498886.020900001,NA,NA,6009.16309999957,1589.03970000028,424795.3323,6009.18470000033,541762.504000002,544289.648900001,NA,NA,NA,NA,1589.11640000224,516783.1525,424288.646000001,NA,541762.5181,517312.659300002,541762.4559,"New experiment",19,"[0]","dist_absent",56,79,"yes","yes",1680,-26.9084500881173,3.43611027190322,"more toward","False","NR","NR","lp",NA,"Right",NA,"Right",-2,NA,"first",5,"NR","in"
"65",2000.90609999816,13717.2579999969,103898.698800014,4,32,"y",1,"['3', 'space']","n","#000000","no",414396.791800002,2,"bias","psycho","psycho","psycho",0,"uniform",0,0,1,1,NA,1,0,NA,0,0,1,0,64,64,NA,NA,NA,NA,0,1,1,NA,64,1,64,73.2296414732588,"Fri Sep  3 15:05:09 2021","The main experiment item","yes","green","no","1","diamond",NA,"pinging_target_expectations 4.0.osexp","C:\Users\etp-cp-ping\Desktop\LocalPC-EXP",75,"no","mono","no",18,"no","white","no","yes",1050,NA,4,"psycho",8,1,8,"C:/Users/etp-cp-ping/Desktop/LocalPC-EXP/subject-12.csv","psycho",0,65,9,"Lentiform Loewenfeld","3.3.8","['hori', 'vert', 'vert', 'hori', 'vert', 'hori', 'vert', 'hori']","yes",104,"circles","no",0,NA,2,"legacy",NA,1024,2,48000,-16,"experiment",12,"even","red","no",7,"circle",219408.785600001,485741.175400002,485741.224500001,NA,498886.020900001,NA,NA,6009.16309999957,1589.03970000028,424795.3323,6009.18470000033,544320.444000001,548229.920400001,NA,NA,NA,NA,1589.11640000224,516783.1525,424288.646000001,NA,544320.458500002,517312.659300002,544320.3937,"New experiment",19,"[0, 74.11142083211367, 73.51984272406025, 74.10025627308258, 74.71179316931435, 74.19465982392173, 73.59240205772026, 74.2387765744181, 74.28282696120151, 73.30823655216011, 73.25470093104114, 75.23030468286014, 73.83724250910109, 74.39471045939067, 74.25901983171724, 74.58741450368184, 73.82587375039867, 75.3195906607626, 73.35955039416365]","dist_present",56,82,"yes","yes",1680,-23.5255125881172,-8.16657722809673,"more away","False","NR","NR","lp",NA,NA,NA,NA,-3,3,"first",6,"NR","in"
"66",1212.88490000006,14930.142899997,105111.583700014,5,33,"y",1,"['3', 'space']","n","#000000","no",549155.053800001,2,"bias","psycho","psycho","psycho",0,"uniform",1,0,1,1,NA,1,0,NA,0,0,1,0,65,65,NA,NA,NA,NA,0,1,1,NA,65,1,65,73.2296414732588,"Fri Sep  3 15:05:09 2021","The main experiment item","yes","red","no","None","circle",NA,"pinging_target_expectations 4.0.osexp","C:\Users\etp-cp-ping\Desktop\LocalPC-EXP",75,"no","mono","no",18,"no","white","no","yes",1050,NA,4,"psycho",9,1,9,"C:/Users/etp-cp-ping/Desktop/LocalPC-EXP/subject-12.csv","psycho",1,66,10,"Lentiform Loewenfeld","3.3.8","['hori', 'vert', 'hori', 'hori', 'hori', 'vert', 'vert', 'vert']","yes",104,"diamond","no",0,NA,2,"legacy",NA,1024,2,48000,-16,"experiment",12,"even","green","no",3,"diamond",219408.785600001,485741.175400002,485741.224500001,NA,498886.020900001,NA,NA,6009.16309999957,1589.03970000028,424795.3323,6009.18470000033,548260.564100001,551393.765799999,NA,NA,NA,NA,1589.11640000224,516783.1525,424288.646000001,NA,548260.578100002,517312.659300002,548260.5157,"New experiment",19,"[0, 81.20746227232866, 95.60185825984539, 106.23691695646274, 121.24224938984625, 134.66240465527213, 146.85723072365576, 160.45765088350112, 178.96175247828347, 196.45867115670154, 211.73411410465695, 225.93368766234113, 251.53023712951548, 264.0637041670032, 282.2536038559093, 301.3884079818277, 318.86829866659997, 338.4532117197857, 357.4981004955284, 376.163806682685, 399.12082163634614, 418.5628871863645, 439.55195360110855, 464.46807422325224, 487.5116157720717, 512.2525150021, 535.4274694339232, 561.5638497827412, 585.8779736429763, 617.0860996370244, 650.6778501233277, 676.6205222630053, 690.3506355468936, 708.1018550560292, 730.2991771841192, 748.5265351758114, 759.4117829424165, 783.8343995438103, 800.3841687392135, 805.5152421930165, 814.5210155876799, 828.9946780265191, 856.7171436042986, 898.9476917919793, 927.0787151146108, 957.1186691196378, 982.4686719234539, 1009.9769054469195]","dist_absent",56,49,"yes","no",1680,-20.3897625881173,-6.06738972809678,"more away","False","NR","NR","lp",NA,"Left",NA,NA,1,NA,"first",7,"NR","in"
"67",1186.8833000008,16117.0261999978,106298.467000015,6,34,"y",1,"['3', 'space']","n","#000000","no",549155.053800001,2,"bias","psycho","psycho","psycho",0,"uniform",1,0,1,1,NA,1,0,NA,0,0,1,0,66,66,NA,NA,NA,NA,0,1,1,NA,66,1,66,73.2296414732588,"Fri Sep  3 15:05:09 2021","The main experiment item","yes","red","no","7","diamond",NA,"pinging_target_expectations 4.0.osexp","C:\Users\etp-cp-ping\Desktop\LocalPC-EXP",75,"no","mono","no",18,"no","white","no","yes",1050,NA,4,"psycho",10,1,10,"C:/Users/etp-cp-ping/Desktop/LocalPC-EXP/subject-12.csv","psycho",1,67,11,"Lentiform Loewenfeld","3.3.8","['hori', 'hori', 'vert', 'hori', 'hori', 'vert', 'vert', 'vert']","yes",104,"circles","no",0,NA,2,"legacy",NA,1024,2,48000,-16,"experiment",12,"even","green","no",5,"circle",219408.785600001,485741.175400002,485741.224500001,NA,498886.020900001,NA,NA,6009.16309999957,1589.03970000028,424795.3323,6009.18470000033,551424.686400002,554545.66,NA,NA,NA,NA,1589.11640000224,516783.1525,424288.646000001,NA,551424.700900003,517312.659300002,551424.636800002,"New experiment",19,"[0]","dist_present",56,68,"yes","yes",1680,-30.5453250881173,-1.85920222809679,"more toward","False","NR","NR","lp",NA,NA,NA,NA,-1,-3,"first",3,"NR","in"
"68",1647.07959999947,17764.1057999973,107945.546600014,7,35,"y",1,"['3', 'space']","n","#000000","no",549155.053800001,2,"bias","psycho","psycho","psycho",0,"uniform",1,0,1,1,NA,1,0,NA,0,0,1,0,67,67,NA,NA,NA,NA,0,1,1,NA,67,1,67,73.2296414732588,"Fri Sep  3 15:05:09 2021","The main experiment item","yes","green","yes","4","diamond",NA,"pinging_target_expectations 4.0.osexp","C:\Users\etp-cp-ping\Desktop\LocalPC-EXP",75,"no","mono","no",18,"no","white","no","yes",1050,NA,4,"psycho",11,1,11,"C:/Users/etp-cp-ping/Desktop/LocalPC-EXP/subject-12.csv","psycho",1,68,12,"Lentiform Loewenfeld","3.3.8","['hori', 'hori', 'hori', 'vert', 'vert', 'hori', 'vert', 'vert']","yes",104,"diamond","no",0,NA,2,"legacy",NA,1024,2,48000,-16,"experiment",12,"even","red","no",3,"circle",219408.785600001,485741.175400002,485741.224500001,NA,498886.020900001,NA,NA,6009.16309999957,1589.03970000028,424795.3323,6009.18470000033,554576.512200001,558049.759600002,NA,NA,NA,NA,1589.11640000224,516783.1525,424288.646000001,NA,554576.526200002,517312.659300002,554576.463500001,"New experiment",19,"[0]","dist_present",56,45,"yes","yes",1680,-36.7758250881173,-5.70657722809674,"more away","False","NR","NR","lp",NA,"Left",NA,NA,1,0,"first",5,"NR","in"
"69",2000.47080000141,19764.5765999987,109946.017400016,7,35,"y",1,"['3', 'space']","n","#000000","no",549155.053800001,2,"bias","psycho","psycho","psycho",0,"uniform",0,0,1,1,NA,1,0,NA,0,0,1,0,68,68,NA,NA,NA,NA,0,1,1,NA,68,1,68,73.2296414732588,"Fri Sep  3 15:05:09 2021","The main experiment item","yes","red","yes","4","circle",NA,"pinging_target_expectations 4.0.osexp","C:\Users\etp-cp-ping\Desktop\LocalPC-EXP",75,"no","mono","no",18,"no","white","no","yes",1050,NA,4,"psycho",12,1,12,"C:/Users/etp-cp-ping/Desktop/LocalPC-EXP/subject-12.csv","psycho",1,69,13,"Lentiform Loewenfeld","3.3.8","['hori', 'vert', 'vert', 'hori', 'vert', 'hori', 'vert', 'hori']","no",204,"None","no",0,NA,2,"legacy",NA,1024,2,48000,-16,"experiment",12,"even","green","no",2,"diamond",219408.785600001,485741.175400002,485741.224500001,NA,498886.020900001,NA,NA,6009.16309999957,1589.03970000028,424795.3323,6009.18470000033,558080.702499999,562137.966900002,NA,NA,NA,NA,1589.11640000224,516783.1525,424288.646000001,NA,558080.716700002,517312.659300002,558080.653500001,"New experiment",19,"[0]","dist_present",56,35,"yes","yes",1680,-35.1704500881173,-5.80888972809678,"more away","False","NR","R","lp",NA,"Left",NA,"Left",2,0,"first",3,"NR","in"
"70",1340.89130000211,21105.4679000008,111286.908700018,8,36,"y",1,"['3', 'space']","n","#000000","no",549155.053800001,2,"bias","psycho","psycho","psycho",0,"uniform",1,0,1,1,NA,1,0,NA,0,0,1,0,69,69,NA,NA,NA,NA,0,1,1,NA,69,1,69,73.2296414732588,"Fri Sep  3 15:05:09 2021","The main experiment item","yes","green","no","2","diamond",NA,"pinging_target_expectations 4.0.osexp","C:\Users\etp-cp-ping\Desktop\LocalPC-EXP",75,"no","mono","no",18,"no","white","no","yes",1050,NA,4,"psycho",13,1,13,"C:/Users/etp-cp-ping/Desktop/LocalPC-EXP/subject-12.csv","psycho",1,70,14,"Lentiform Loewenfeld","3.3.8","['vert', 'hori', 'vert', 'hori', 'vert', 'vert', 'hori', 'hori']","yes",104,"circles","no",0,NA,2,"legacy",NA,1024,2,48000,-16,"experiment",12,"even","red","yes",4,"circle",219408.785600001,485741.175400002,485741.224500001,NA,498886.020900001,NA,NA,6009.16309999957,1589.03970000028,424795.3323,6009.18470000033,562170.4279,565409.7014,NA,NA,NA,NA,1589.11640000224,516783.1525,424288.646000001,NA,562170.442800001,517312.659300002,562170.355599999,"New experiment",19,"[0]","dist_present",56,53,"yes","yes",1680,-28.3070125881174,-10.3518272280968,"more away","False","NR","NR","lp","Left",NA,"Left",NA,0,2,"first",2,"NR","ex"
"71",1069.83899999969,22175.3069000005,112356.747700018,9,37,"y",1,"['3', 'space']","n","#000000","no",549155.053800001,2,"bias","psycho","psycho","psycho",0,"uniform",1,0,1,1,NA,1,0,NA,0,0,1,0,70,70,NA,NA,NA,NA,0,1,1,NA,70,1,70,73.2296414732588,"Fri Sep  3 15:05:09 2021","The main experiment item","yes","red","no","1","circle",NA,"pinging_target_expectations 4.0.osexp","C:\Users\etp-cp-ping\Desktop\LocalPC-EXP",75,"no","mono","no",18,"no","white","no","yes",1050,NA,4,"psycho",14,1,14,"C:/Users/etp-cp-ping/Desktop/LocalPC-EXP/subject-12.csv","psycho",1,71,15,"Lentiform Loewenfeld","3.3.8","['hori', 'hori', 'vert', 'vert', 'vert', 'hori', 'hori', 'vert']","no",204,"None","no",0,NA,2,"legacy",NA,1024,2,48000,-16,"experiment",12,"even","green","yes",4,"diamond",219408.785600001,485741.175400002,485741.224500001,NA,498886.020900001,NA,NA,6009.16309999957,1589.03970000028,424795.3323,6009.18470000033,565440.624300001,568401.784199999,NA,NA,NA,NA,1589.11640000224,516783.1525,424288.646000001,NA,565440.638300002,517312.659300002,565440.5754,"New experiment",19,"[0]","dist_present",56,52,"yes","yes",1680,-39.1379500881174,-4.99870222809676,"more toward","False","R","NR","hp","Left",NA,NA,NA,0,3,"first",4,"NR","ex"
