"","RT","RT_bl","RT_tot","acc_bl","acc_tot","answer_debrief_1","answer_debrief_2","answer_debrief_3","answer_debrief_4","background","bidi","blink_onset","block_cnt","block_type","canvas_backend","clock_backend","color_backend","compensation","coordinates","correct","count_block_loop","count_block_seq","count_block_settings","count_check_session","count_drift_correct","count_end_loop","count_end_seq","count_exp_settings","count_experiment","count_feedback","count_instructions","count_log_variables","count_logger","count_new_inline_script","count_new_pygaze_drift_correct","count_new_pygaze_start_recording","count_new_pygaze_stop_recording","count_pygaze","count_start_recording","count_stop_recording","count_test_location","count_trial","count_trial_loop","count_trial_seq","d_eye","datetime","description","disable_garbage_collection","dist_color","dist_high","dist_loc","dist_shape","empty_column","experiment_file","experiment_path","eye_threshold_length","font_bold","font_family","font_italic","font_size","font_underline","foreground","form_clicks","fullscreen","height","high_loc","high_prob_loc","keyboard_backend","live_row","live_row_block_loop","live_row_trial_loop","logfile","mouse_backend","nr_blinks","nr_trials","nr_trials_bl","opensesame_codename","opensesame_version","orient_list_trial","ping","ping_trigger","ping_type","practice","repeat_cycle","response","round_decimals","sampler_backend","session_nr","sound_buf_size","sound_channels","sound_freq","sound_sample_size","start","subject_nr","subject_parity","target_color","target_high","target_loc","target_shape","time_block_loop","time_block_seq","time_block_settings","time_check_session","time_drift_correct","time_end_loop","time_end_seq","time_exp_settings","time_experiment","time_feedback","time_instructions","time_log_variables","time_logger","time_new_inline_script","time_new_pygaze_drift_correct","time_new_pygaze_start_recording","time_new_pygaze_stop_recording","time_pygaze","time_start_recording","time_stop_recording","time_test_location","time_trial","time_trial_loop","time_trial_seq","title","total_blocks","tracker_dev","trial_type","trials_in_block","trigger","uniform_coordinates","update_blinks","width","x","y","toward","containsNaN","rept","repd","prevtar","pd","nt","pd_c","nt_c","tar_dist","dist_dist","prevHP","eegTar","repteeg","tarcounter","correcteeg"
"1",728.748800000176,728.748800000176,728.748800000176,1,1,"n",1,"['1', '8', '7', 'space']","n","#000000","no",311084.9633,1,"neutral","psycho","psycho","psycho",0,"uniform",1,0,0,0,NA,0,0,NA,0,0,0,0,0,0,NA,NA,NA,NA,0,0,0,NA,0,0,0,73.2296414732588,"Mon Oct  4 11:01:09 2021","The main experiment item","yes","red","no","None","circle",NA,"pinging_target_expectations 4.0.osexp","C:\Users\etp-cp-ping\Desktop\LocalPC-EXP",75,"no","mono","no",18,"no","white","no","yes",1050,NA,100,"psycho",0,0,0,"C:/Users/etp-cp-ping/Desktop/LocalPC-EXP/subject-20.csv","psycho",2,1,1,"Lentiform Loewenfeld","3.3.8","['hori', 'hori', 'vert', 'vert', 'vert', 'hori', 'hori', 'vert']","no",209,"None","yes",0,NA,2,"legacy",NA,1024,2,48000,-16,"experiment",20,"even","green","no",7,"diamond",298524.9365,298535.8097,298535.8508,NA,308700.9528,NA,NA,59896.7462000001,3659.53259999969,NA,59896.7685999996,309373.9408,311741.6525,NA,NA,NA,NA,3659.61169999991,309027.5146,NA,NA,309373.9557,309369.6163,309373.9004,"New experiment",19,"[0]","dist_absent",56,89,"yes","yes",1680,NA,NA,NA,NA,"NR","NR","lp",NA,"Right",NA,NA,NA,NA,"practice",999,"NR","in",0
"2",934.635899999645,1663.38469999982,1663.38469999982,1,1,"n",1,"['1', '8', '7', 'space']","n","#000000","no",311084.9633,1,"neutral","psycho","psycho","psycho",0,"uniform",0,0,0,0,NA,0,0,NA,0,0,0,0,1,1,NA,NA,NA,NA,0,0,0,NA,1,0,1,73.2296414732588,"Mon Oct  4 11:01:09 2021","The main experiment item","yes","red","no","None","diamond",NA,"pinging_target_expectations 4.0.osexp","C:\Users\etp-cp-ping\Desktop\LocalPC-EXP",75,"no","mono","no",18,"no","white","no","yes",1050,NA,100,"psycho",1,0,1,"C:/Users/etp-cp-ping/Desktop/LocalPC-EXP/subject-20.csv","psycho",2,2,2,"Lentiform Loewenfeld","3.3.8","['vert', 'hori', 'vert', 'vert', 'hori', 'hori', 'vert', 'hori']","yes",109,"circles","yes",0,NA,2,"legacy",NA,1024,2,48000,-16,"experiment",20,"even","green","no",7,"circle",298524.9365,298535.8097,298535.8508,NA,308700.9528,NA,NA,59896.7462000001,3659.53259999969,NA,59896.7685999996,311781.0383,314669.7023,NA,NA,NA,NA,3659.61169999991,309027.5146,NA,NA,311781.0529,309369.6163,311780.9912,"New experiment",19,"[0]","dist_absent",56,89,"yes","yes",1680,NA,NA,NA,NA,"R","R","lp",NA,"Right",NA,NA,NA,NA,"practice",7,"NR","in",1
"3",798.809200000076,2462.1938999999,2462.1938999999,1,1,"n",1,"['1', '8', '7', 'space']","n","#000000","no",311084.9633,1,"neutral","psycho","psycho","psycho",0,"uniform",0,0,0,0,NA,0,0,NA,0,0,0,0,2,2,NA,NA,NA,NA,0,0,0,NA,2,0,2,73.2296414732588,"Mon Oct  4 11:01:09 2021","The main experiment item","yes","green","no","None","circle",NA,"pinging_target_expectations 4.0.osexp","C:\Users\etp-cp-ping\Desktop\LocalPC-EXP",75,"no","mono","no",18,"no","white","no","yes",1050,NA,100,"psycho",2,0,2,"C:/Users/etp-cp-ping/Desktop/LocalPC-EXP/subject-20.csv","psycho",2,3,3,"Lentiform Loewenfeld","3.3.8","['hori', 'vert', 'vert', 'hori', 'vert', 'hori', 'vert', 'hori']","yes",109,"circles","yes",0,NA,2,"legacy",NA,1024,2,48000,-16,"experiment",20,"even","red","no",1,"diamond",298524.9365,298535.8097,298535.8508,NA,308700.9528,NA,NA,59896.7462000001,3659.53259999969,NA,59896.7685999996,314700.4357,317341.814,NA,NA,NA,NA,3659.61169999991,309027.5146,NA,NA,314700.4503,309369.6163,314700.3866,"New experiment",19,"[0]","dist_absent",56,29,"yes","yes",1680,NA,NA,NA,NA,"NR","R","lp",NA,"Left",NA,NA,NA,NA,"practice",7,"R","in",0
"4",1013.50880000019,3475.70270000008,3475.70270000008,1,1,"n",1,"['1', '8', '7', 'space']","n","#000000","no",311084.9633,1,"neutral","psycho","psycho","psycho",0,"uniform",0,0,0,0,NA,0,0,NA,0,0,0,0,3,3,NA,NA,NA,NA,0,0,0,NA,3,0,3,73.2296414732588,"Mon Oct  4 11:01:09 2021","The main experiment item","yes","green","no","4","diamond",NA,"pinging_target_expectations 4.0.osexp","C:\Users\etp-cp-ping\Desktop\LocalPC-EXP",75,"no","mono","no",18,"no","white","no","yes",1050,NA,100,"psycho",3,0,3,"C:/Users/etp-cp-ping/Desktop/LocalPC-EXP/subject-20.csv","psycho",2,4,4,"Lentiform Loewenfeld","3.3.8","['vert', 'hori', 'hori', 'vert', 'vert', 'hori', 'vert', 'hori']","yes",109,"circles","yes",0,NA,2,"legacy",NA,1024,2,48000,-16,"experiment",20,"even","red","no",2,"circle",298524.9365,298535.8097,298535.8508,NA,308700.9528,NA,NA,59896.7462000001,3659.53259999969,NA,59896.7685999996,317372.2434,320157.7268,NA,NA,NA,NA,3659.61169999991,309027.5146,NA,NA,317372.2579,309369.6163,317372.1941,"New experiment",19,"[0]","dist_present",56,35,"yes","yes",1680,NA,NA,NA,NA,"NR","NR","lp",NA,"Left",NA,"Left",NA,NA,"practice",1,"NR","in",0
"5",916.802799999889,4392.50549999997,4392.50549999997,1,1,"n",1,"['1', '8', '7', 'space']","n","#000000","no",311084.9633,1,"neutral","psycho","psycho","psycho",0,"uniform",0,0,0,0,NA,0,0,NA,0,0,0,0,4,4,NA,NA,NA,NA,0,0,0,NA,4,0,4,73.2296414732588,"Mon Oct  4 11:01:09 2021","The main experiment item","yes","green","no","None","circle",NA,"pinging_target_expectations 4.0.osexp","C:\Users\etp-cp-ping\Desktop\LocalPC-EXP",75,"no","mono","no",18,"no","white","no","yes",1050,NA,100,"psycho",4,0,4,"C:/Users/etp-cp-ping/Desktop/LocalPC-EXP/subject-20.csv","psycho",2,5,5,"Lentiform Loewenfeld","3.3.8","['hori', 'vert', 'vert', 'hori', 'hori', 'vert', 'vert', 'hori']","yes",109,"diamond","yes",0,NA,2,"legacy",NA,1024,2,48000,-16,"experiment",20,"even","red","no",7,"diamond",298524.9365,298535.8097,298535.8508,NA,308700.9528,NA,NA,59896.7462000001,3659.53259999969,NA,59896.7685999996,320188.3234,322893.7224,NA,NA,NA,NA,3659.61169999991,309027.5146,NA,NA,320188.3377,309369.6163,320188.2738,"New experiment",19,"[0]","dist_absent",56,89,"yes","yes",1680,NA,NA,NA,NA,"NR","NR","lp",NA,"Right",NA,NA,NA,NA,"practice",2,"NR","in",0
"6",1014.64290000009,5407.14840000006,5407.14840000006,2,2,"n",1,"['1', '8', '7', 'space']","n","#000000","no",311084.9633,1,"neutral","psycho","psycho","psycho",0,"uniform",1,0,0,0,NA,0,0,NA,0,0,0,0,5,5,NA,NA,NA,NA,0,0,0,NA,5,0,5,73.2296414732588,"Mon Oct  4 11:01:09 2021","The main experiment item","yes","red","no","4","circle",NA,"pinging_target_expectations 4.0.osexp","C:\Users\etp-cp-ping\Desktop\LocalPC-EXP",75,"no","mono","no",18,"no","white","no","yes",1050,NA,100,"psycho",5,0,5,"C:/Users/etp-cp-ping/Desktop/LocalPC-EXP/subject-20.csv","psycho",2,6,6,"Lentiform Loewenfeld","3.3.8","['hori', 'hori', 'vert', 'hori', 'vert', 'vert', 'hori', 'vert']","yes",109,"diamond","yes",0,NA,2,"legacy",NA,1024,2,48000,-16,"experiment",20,"even","green","no",5,"diamond",298524.9365,298535.8097,298535.8508,NA,308700.9528,NA,NA,59896.7462000001,3659.53259999969,NA,59896.7685999996,322924.1575,326077.7371,NA,NA,NA,NA,3659.61169999991,309027.5146,NA,NA,322924.1718,309369.6163,322924.1089,"New experiment",19,"[0]","dist_present",56,65,"yes","yes",1680,NA,NA,NA,NA,"NR","NR","lp",NA,"Right",NA,NA,NA,NA,"practice",7,"NR","in",0
"7",1534.06250000035,6941.21090000041,6941.21090000041,3,3,"n",1,"['1', '8', '7', 'space']","n","#000000","no",311084.9633,1,"neutral","psycho","psycho","psycho",0,"uniform",1,0,0,0,NA,0,0,NA,0,0,0,0,6,6,NA,NA,NA,NA,0,0,0,NA,6,0,6,73.2296414732588,"Mon Oct  4 11:01:09 2021","The main experiment item","yes","green","no","None","circle",NA,"pinging_target_expectations 4.0.osexp","C:\Users\etp-cp-ping\Desktop\LocalPC-EXP",75,"no","mono","no",18,"no","white","no","yes",1050,NA,100,"psycho",6,0,6,"C:/Users/etp-cp-ping/Desktop/LocalPC-EXP/subject-20.csv","psycho",2,7,7,"Lentiform Loewenfeld","3.3.8","['hori', 'hori', 'hori', 'vert', 'vert', 'vert', 'hori', 'vert']","no",209,"None","yes",0,NA,2,"legacy",NA,1024,2,48000,-16,"experiment",20,"even","red","no",2,"diamond",298524.9365,298535.8097,298535.8508,NA,308700.9528,NA,NA,59896.7462000001,3659.53259999969,NA,59896.7685999996,326108.1677,329613.7464,NA,NA,NA,NA,3659.61169999991,309027.5146,NA,NA,326108.1823,309369.6163,326108.1176,"New experiment",19,"[0]","dist_absent",56,39,"yes","yes",1680,NA,NA,NA,NA,"NR","NR","lp",NA,"Left",NA,"Left",NA,NA,"practice",5,"NR","in",1
"8",2000.15609999991,8941.36700000032,8941.36700000032,3,3,"n",1,"['1', '8', '7', 'space']","n","#000000","no",311084.9633,1,"neutral","psycho","psycho","psycho",0,"uniform",0,0,0,0,NA,0,0,NA,0,0,0,0,7,7,NA,NA,NA,NA,0,0,0,NA,7,0,7,73.2296414732588,"Mon Oct  4 11:01:09 2021","The main experiment item","yes","red","no","7","diamond",NA,"pinging_target_expectations 4.0.osexp","C:\Users\etp-cp-ping\Desktop\LocalPC-EXP",75,"no","mono","no",18,"no","white","no","yes",1050,NA,100,"psycho",7,0,7,"C:/Users/etp-cp-ping/Desktop/LocalPC-EXP/subject-20.csv","psycho",2,8,8,"Lentiform Loewenfeld","3.3.8","['hori', 'hori', 'vert', 'vert', 'vert', 'hori', 'hori', 'vert']","no",209,"None","yes",0,NA,2,"legacy",NA,1024,2,48000,-16,"experiment",20,"even","green","no",5,"circle",298524.9365,298535.8097,298535.8508,NA,308700.9528,NA,NA,59896.7462000001,3659.53259999969,NA,59896.7685999996,329644.0705,333305.3316,NA,NA,NA,NA,3659.61169999991,309027.5146,NA,NA,329644.0846,309369.6163,329644.0221,"New experiment",19,"[0]","dist_present",56,68,"yes","yes",1680,NA,NA,NA,NA,"NR","NR","lp",NA,NA,NA,NA,NA,NA,"practice",2,"NR","in",1
"9",1154.85690000013,10096.2239000004,10096.2239000004,3,3,"n",1,"['1', '8', '7', 'space']","n","#000000","no",311084.9633,1,"neutral","psycho","psycho","psycho",0,"uniform",0,0,0,0,NA,0,0,NA,0,0,0,0,8,8,NA,NA,NA,NA,0,0,0,NA,8,0,8,73.2296414732588,"Mon Oct  4 11:01:09 2021","The main experiment item","yes","red","no","1","circle",NA,"pinging_target_expectations 4.0.osexp","C:\Users\etp-cp-ping\Desktop\LocalPC-EXP",75,"no","mono","no",18,"no","white","no","yes",1050,NA,100,"psycho",8,0,8,"C:/Users/etp-cp-ping/Desktop/LocalPC-EXP/subject-20.csv","psycho",2,9,9,"Lentiform Loewenfeld","3.3.8","['vert', 'hori', 'hori', 'hori', 'vert', 'vert', 'hori', 'vert']","no",209,"None","yes",0,NA,2,"legacy",NA,1024,2,48000,-16,"experiment",20,"even","green","no",6,"diamond",298524.9365,298535.8097,298535.8508,NA,308700.9528,NA,NA,59896.7462000001,3659.53259999969,NA,59896.7685999996,333335.4302,336413.7585,NA,NA,NA,NA,3659.61169999991,309027.5146,NA,NA,333335.4448,309369.6163,333335.381,"New experiment",19,"[0]","dist_present",56,72,"yes","yes",1680,NA,NA,NA,NA,"NR","NR","lp",NA,NA,NA,NA,NA,NA,"practice",5,"NR","in",0
"10",1590.44909999962,11686.6730000001,11686.6730000001,4,4,"n",1,"['1', '8', '7', 'space']","n","#000000","no",311084.9633,1,"neutral","psycho","psycho","psycho",0,"uniform",1,0,0,0,NA,0,0,NA,0,0,0,0,9,9,NA,NA,NA,NA,0,0,0,NA,9,0,9,73.2296414732588,"Mon Oct  4 11:01:09 2021","The main experiment item","yes","red","no","1","diamond",NA,"pinging_target_expectations 4.0.osexp","C:\Users\etp-cp-ping\Desktop\LocalPC-EXP",75,"no","mono","no",18,"no","white","no","yes",1050,NA,100,"psycho",9,0,9,"C:/Users/etp-cp-ping/Desktop/LocalPC-EXP/subject-20.csv","psycho",2,10,10,"Lentiform Loewenfeld","3.3.8","['hori', 'vert', 'hori', 'hori', 'vert', 'hori', 'vert', 'vert']","yes",109,"diamond","yes",0,NA,2,"legacy",NA,1024,2,48000,-16,"experiment",20,"even","green","no",5,"circle",298524.9365,298535.8097,298535.8508,NA,308700.9528,NA,NA,59896.7462000001,3659.53259999969,NA,59896.7685999996,336444.1987,339965.8277,NA,NA,NA,NA,3659.61169999991,309027.5146,NA,NA,336444.213,309369.6163,336444.1455,"New experiment",19,"[0]","dist_present",56,62,"yes","yes",1680,NA,NA,NA,NA,"NR","R","lp",NA,NA,NA,NA,NA,NA,"practice",6,"NR","in",0
"11",919.87189999962,12606.5448999997,12606.5448999997,5,5,"n",1,"['1', '8', '7', 'space']","n","#000000","no",340302.2326,1,"neutral","psycho","psycho","psycho",0,"uniform",1,0,0,0,NA,0,0,NA,0,0,0,0,10,10,NA,NA,NA,NA,0,0,0,NA,10,0,10,73.2296414732588,"Mon Oct  4 11:01:09 2021","The main experiment item","yes","green","no","5","circle",NA,"pinging_target_expectations 4.0.osexp","C:\Users\etp-cp-ping\Desktop\LocalPC-EXP",75,"no","mono","no",18,"no","white","no","yes",1050,NA,100,"psycho",10,0,10,"C:/Users/etp-cp-ping/Desktop/LocalPC-EXP/subject-20.csv","psycho",3,11,11,"Lentiform Loewenfeld","3.3.8","['vert', 'hori', 'vert', 'hori', 'hori', 'vert', 'vert', 'hori']","no",209,"None","yes",0,NA,2,"legacy",NA,1024,2,48000,-16,"experiment",20,"even","red","no",2,"diamond",298524.9365,298535.8097,298535.8508,NA,308700.9528,NA,NA,59896.7462000001,3659.53259999969,NA,59896.7685999996,339996.4935,342701.78,NA,NA,NA,NA,3659.61169999991,309027.5146,NA,NA,339996.5078,309369.6163,339996.444,"New experiment",19,"[0]","dist_present",56,36,"yes","yes",1680,NA,NA,NA,NA,"NR","NR","lp",NA,NA,NA,NA,NA,NA,"practice",5,"NR","in",1
"12",894.125400000135,13500.6702999998,13500.6702999998,5,5,"n",1,"['1', '8', '7', 'space']","n","#000000","no",340302.2326,1,"neutral","psycho","psycho","psycho",0,"uniform",0,0,0,0,NA,0,0,NA,0,0,0,0,11,11,NA,NA,NA,NA,0,0,0,NA,11,0,11,73.2296414732588,"Mon Oct  4 11:01:09 2021","The main experiment item","yes","red","no","3","circle",NA,"pinging_target_expectations 4.0.osexp","C:\Users\etp-cp-ping\Desktop\LocalPC-EXP",75,"no","mono","no",18,"no","white","no","yes",1050,NA,100,"psycho",11,0,11,"C:/Users/etp-cp-ping/Desktop/LocalPC-EXP/subject-20.csv","psycho",3,12,12,"Lentiform Loewenfeld","3.3.8","['vert', 'vert', 'hori', 'hori', 'hori', 'vert', 'vert', 'hori']","yes",109,"diamond","yes",0,NA,2,"legacy",NA,1024,2,48000,-16,"experiment",20,"even","green","no",1,"diamond",298524.9365,298535.8097,298535.8508,NA,308700.9528,NA,NA,59896.7462000001,3659.53259999969,NA,59896.7685999996,342733.6512,345709.691,NA,NA,NA,NA,3659.61169999991,309027.5146,NA,NA,342733.6657,309369.6163,342733.6019,"New experiment",19,"[0]","dist_present",56,24,"yes","yes",1680,NA,NA,NA,NA,"NR","NR","lp",NA,NA,NA,NA,NA,NA,"practice",2,"NR","in",1
"13",1373.36379999988,14874.0340999997,14874.0340999997,5,5,"n",1,"['1', '8', '7', 'space']","n","#000000","no",340302.2326,1,"neutral","psycho","psycho","psycho",0,"uniform",0,0,0,0,NA,0,0,NA,0,0,0,0,12,12,NA,NA,NA,NA,0,0,0,NA,12,0,12,73.2296414732588,"Mon Oct  4 11:01:09 2021","The main experiment item","yes","red","no","5","diamond",NA,"pinging_target_expectations 4.0.osexp","C:\Users\etp-cp-ping\Desktop\LocalPC-EXP",75,"no","mono","no",18,"no","white","no","yes",1050,NA,100,"psycho",12,0,12,"C:/Users/etp-cp-ping/Desktop/LocalPC-EXP/subject-20.csv","psycho",3,13,13,"Lentiform Loewenfeld","3.3.8","['vert', 'hori', 'vert', 'hori', 'hori', 'vert', 'vert', 'hori']","no",209,"None","yes",0,NA,2,"legacy",NA,1024,2,48000,-16,"experiment",20,"even","green","no",4,"circle",298524.9365,298535.8097,298535.8508,NA,308700.9528,NA,NA,59896.7462000001,3659.53259999969,NA,59896.7685999996,345740.2474,349117.8384,NA,NA,NA,NA,3659.61169999991,309027.5146,NA,NA,345740.2616,309369.6163,345740.1984,"New experiment",19,"[0]","dist_present",56,56,"yes","yes",1680,NA,NA,NA,NA,"NR","NR","lp","Right",NA,NA,NA,NA,NA,"practice",1,"NR","in",0
"14",1444.641,16318.6750999997,16318.6750999997,6,6,"n",1,"['1', '8', '7', 'space']","n","#000000","no",340302.2326,1,"neutral","psycho","psycho","psycho",0,"uniform",1,0,0,0,NA,0,0,NA,0,0,0,0,13,13,NA,NA,NA,NA,0,0,0,NA,13,0,13,73.2296414732588,"Mon Oct  4 11:01:09 2021","The main experiment item","yes","green","no","5","diamond",NA,"pinging_target_expectations 4.0.osexp","C:\Users\etp-cp-ping\Desktop\LocalPC-EXP",75,"no","mono","no",18,"no","white","no","yes",1050,NA,100,"psycho",13,0,13,"C:/Users/etp-cp-ping/Desktop/LocalPC-EXP/subject-20.csv","psycho",3,14,14,"Lentiform Loewenfeld","3.3.8","['vert', 'hori', 'vert', 'hori', 'hori', 'hori', 'vert', 'vert']","no",209,"None","yes",0,NA,2,"legacy",NA,1024,2,48000,-16,"experiment",20,"even","red","no",1,"circle",298524.9365,298535.8097,298535.8508,NA,308700.9528,NA,NA,59896.7462000001,3659.53259999969,NA,59896.7685999996,349148.468,352621.7208,NA,NA,NA,NA,3659.61169999991,309027.5146,NA,NA,349148.4824,309369.6163,349148.4196,"New experiment",19,"[0]","dist_present",56,26,"yes","yes",1680,NA,NA,NA,NA,"NR","R","lp",NA,NA,NA,NA,NA,NA,"practice",4,"NR","in",0
"15",1742.64549999998,18061.3205999997,18061.3205999997,7,7,"n",1,"['1', '8', '7', 'space']","n","#000000","no",340302.2326,1,"neutral","psycho","psycho","psycho",0,"uniform",1,0,0,0,NA,0,0,NA,0,0,0,0,14,14,NA,NA,NA,NA,0,0,0,NA,14,0,14,73.2296414732588,"Mon Oct  4 11:01:09 2021","The main experiment item","yes","green","no","5","diamond",NA,"pinging_target_expectations 4.0.osexp","C:\Users\etp-cp-ping\Desktop\LocalPC-EXP",75,"no","mono","no",18,"no","white","no","yes",1050,NA,100,"psycho",14,0,14,"C:/Users/etp-cp-ping/Desktop/LocalPC-EXP/subject-20.csv","psycho",3,15,15,"Lentiform Loewenfeld","3.3.8","['hori', 'hori', 'hori', 'vert', 'vert', 'vert', 'vert', 'hori']","no",209,"None","yes",0,NA,2,"legacy",NA,1024,2,48000,-16,"experiment",20,"even","red","no",0,"circle",298524.9365,298535.8097,298535.8508,NA,308700.9528,NA,NA,59896.7462000001,3659.53259999969,NA,59896.7685999996,352652.0449,356253.7627,NA,NA,NA,NA,3659.61169999991,309027.5146,NA,NA,352652.0593,309369.6163,352651.9951,"New experiment",19,"[0]","dist_present",56,16,"yes","yes",1680,NA,NA,NA,NA,"NR","R","lp","Right",NA,NA,NA,NA,NA,"practice",1,"NR","in",1
"16",2000.59000000008,20061.9105999998,20061.9105999998,7,7,"n",1,"['1', '8', '7', 'space']","n","#000000","no",340302.2326,1,"neutral","psycho","psycho","psycho",0,"uniform",0,0,0,0,NA,0,0,NA,0,0,0,0,15,15,NA,NA,NA,NA,0,0,0,NA,15,0,15,73.2296414732588,"Mon Oct  4 11:01:09 2021","The main experiment item","yes","red","no","0","circle",NA,"pinging_target_expectations 4.0.osexp","C:\Users\etp-cp-ping\Desktop\LocalPC-EXP",75,"no","mono","no",18,"no","white","no","yes",1050,NA,100,"psycho",15,0,15,"C:/Users/etp-cp-ping/Desktop/LocalPC-EXP/subject-20.csv","psycho",3,16,16,"Lentiform Loewenfeld","3.3.8","['vert', 'hori', 'hori', 'vert', 'hori', 'vert', 'hori', 'vert']","no",209,"None","yes",0,NA,2,"legacy",NA,1024,2,48000,-16,"experiment",20,"even","green","no",6,"diamond",298524.9365,298535.8097,298535.8508,NA,308700.9528,NA,NA,59896.7462000001,3659.53259999969,NA,59896.7685999996,356284.2823,360006.4363,NA,NA,NA,NA,3659.61169999991,309027.5146,NA,NA,356284.2968,309369.6163,356284.2337,"New experiment",19,"[0]","dist_present",56,71,"yes","yes",1680,NA,NA,NA,NA,"NR","NR","lp",NA,"Right",NA,"Right",NA,NA,"practice",0,"NR","in",1
"17",1628.43509999989,21690.3456999997,21690.3456999997,8,8,"n",1,"['1', '8', '7', 'space']","n","#000000","no",340302.2326,1,"neutral","psycho","psycho","psycho",0,"uniform",1,0,0,0,NA,0,0,NA,0,0,0,0,16,16,NA,NA,NA,NA,0,0,0,NA,16,0,16,73.2296414732588,"Mon Oct  4 11:01:09 2021","The main experiment item","yes","red","no","None","diamond",NA,"pinging_target_expectations 4.0.osexp","C:\Users\etp-cp-ping\Desktop\LocalPC-EXP",75,"no","mono","no",18,"no","white","no","yes",1050,NA,100,"psycho",16,0,16,"C:/Users/etp-cp-ping/Desktop/LocalPC-EXP/subject-20.csv","psycho",3,17,17,"Lentiform Loewenfeld","3.3.8","['hori', 'vert', 'vert', 'vert', 'hori', 'hori', 'hori', 'vert']","no",209,"None","yes",0,NA,2,"legacy",NA,1024,2,48000,-16,"experiment",20,"even","green","no",4,"circle",298524.9365,298535.8097,298535.8508,NA,308700.9528,NA,NA,59896.7462000001,3659.53259999969,NA,59896.7685999996,360036.7144,363517.7355,NA,NA,NA,NA,3659.61169999991,309027.5146,NA,NA,360036.7286,309369.6163,360036.6654,"New experiment",19,"[0]","dist_absent",56,59,"yes","yes",1680,NA,NA,NA,NA,"NR","NR","lp",NA,NA,NA,NA,NA,NA,"practice",6,"NR","in",0
"18",1021.85350000038,22712.1992,22712.1992,9,9,"n",1,"['1', '8', '7', 'space']","n","#000000","no",340302.2326,1,"neutral","psycho","psycho","psycho",0,"uniform",1,0,0,0,NA,0,0,NA,0,0,0,0,17,17,NA,NA,NA,NA,0,0,0,NA,17,0,17,73.2296414732588,"Mon Oct  4 11:01:09 2021","The main experiment item","yes","red","no","2","diamond",NA,"pinging_target_expectations 4.0.osexp","C:\Users\etp-cp-ping\Desktop\LocalPC-EXP",75,"no","mono","no",18,"no","white","no","yes",1050,NA,100,"psycho",17,0,17,"C:/Users/etp-cp-ping/Desktop/LocalPC-EXP/subject-20.csv","psycho",3,18,18,"Lentiform Loewenfeld","3.3.8","['vert', 'hori', 'hori', 'vert', 'vert', 'hori', 'hori', 'vert']","no",209,"None","yes",0,NA,2,"legacy",NA,1024,2,48000,-16,"experiment",20,"even","green","no",6,"circle",298524.9365,298535.8097,298535.8508,NA,308700.9528,NA,NA,59896.7462000001,3659.53259999969,NA,59896.7685999996,363548.1947,366477.7284,NA,NA,NA,NA,3659.61169999991,309027.5146,NA,NA,363548.2091,309369.6163,363548.1445,"New experiment",19,"[0]","dist_present",56,73,"yes","yes",1680,NA,NA,NA,NA,"NR","NR","lp",NA,NA,NA,NA,NA,NA,"practice",4,"NR","in",1
"19",1659.07849999983,24371.2776999999,24371.2776999999,9,9,"n",1,"['1', '8', '7', 'space']","n","#000000","no",340302.2326,1,"neutral","psycho","psycho","psycho",0,"uniform",0,0,0,0,NA,0,0,NA,0,0,0,0,18,18,NA,NA,NA,NA,0,0,0,NA,18,0,18,73.2296414732588,"Mon Oct  4 11:01:09 2021","The main experiment item","yes","red","no","3","circle",NA,"pinging_target_expectations 4.0.osexp","C:\Users\etp-cp-ping\Desktop\LocalPC-EXP",75,"no","mono","no",18,"no","white","no","yes",1050,NA,100,"psycho",18,0,18,"C:/Users/etp-cp-ping/Desktop/LocalPC-EXP/subject-20.csv","psycho",3,19,19,"Lentiform Loewenfeld","3.3.8","['vert', 'vert', 'hori', 'hori', 'hori', 'hori', 'vert', 'vert']","no",209,"None","yes",0,NA,2,"legacy",NA,1024,2,48000,-16,"experiment",20,"even","green","no",6,"diamond",298524.9365,298535.8097,298535.8508,NA,308700.9528,NA,NA,59896.7462000001,3659.53259999969,NA,59896.7685999996,366508.1263,370013.7702,NA,NA,NA,NA,3659.61169999991,309027.5146,NA,NA,366508.141,309369.6163,366508.0763,"New experiment",19,"[0]","dist_present",56,74,"yes","yes",1680,NA,NA,NA,NA,"R","NR","lp",NA,NA,NA,NA,NA,NA,"practice",6,"NR","in",1
"20",1806.94050000014,26178.2182,26178.2182,10,10,"n",1,"['1', '8', '7', 'space']","n","#000000","no",340302.2326,1,"neutral","psycho","psycho","psycho",0,"uniform",1,0,0,0,NA,0,0,NA,0,0,0,0,19,19,NA,NA,NA,NA,0,0,0,NA,19,0,19,73.2296414732588,"Mon Oct  4 11:01:09 2021","The main experiment item","yes","green","no","6","diamond",NA,"pinging_target_expectations 4.0.osexp","C:\Users\etp-cp-ping\Desktop\LocalPC-EXP",75,"no","mono","no",18,"no","white","no","yes",1050,NA,100,"psycho",19,0,19,"C:/Users/etp-cp-ping/Desktop/LocalPC-EXP/subject-20.csv","psycho",3,20,20,"Lentiform Loewenfeld","3.3.8","['hori', 'hori', 'hori', 'vert', 'vert', 'vert', 'vert', 'hori']","yes",109,"diamond","yes",0,NA,2,"legacy",NA,1024,2,48000,-16,"experiment",20,"even","red","no",0,"circle",298524.9365,298535.8097,298535.8508,NA,308700.9528,NA,NA,59896.7462000001,3659.53259999969,NA,59896.7685999996,370044.3891,373837.7312,NA,NA,NA,NA,3659.61169999991,309027.5146,NA,NA,370044.4035,309369.6163,370044.3389,"New experiment",19,"[0]","dist_present",56,17,"yes","yes",1680,NA,NA,NA,NA,"NR","NR","lp","Right",NA,"Right",NA,NA,NA,"practice",6,"R","in",0
"21",1065.88770000008,27244.1059000001,27244.1059000001,10,10,"n",1,"['1', '8', '7', 'space']","n","#000000","no",340302.2326,1,"neutral","psycho","psycho","psycho",0,"uniform",0,0,0,0,NA,0,0,NA,0,0,0,0,20,20,NA,NA,NA,NA,0,0,0,NA,20,0,20,73.2296414732588,"Mon Oct  4 11:01:09 2021","The main experiment item","yes","red","no","2","diamond",NA,"pinging_target_expectations 4.0.osexp","C:\Users\etp-cp-ping\Desktop\LocalPC-EXP",75,"no","mono","no",18,"no","white","no","yes",1050,NA,100,"psycho",20,0,20,"C:/Users/etp-cp-ping/Desktop/LocalPC-EXP/subject-20.csv","psycho",3,21,21,"Lentiform Loewenfeld","3.3.8","['vert', 'vert', 'vert', 'hori', 'hori', 'hori', 'vert', 'hori']","no",209,"None","yes",0,NA,2,"legacy",NA,1024,2,48000,-16,"experiment",20,"even","green","no",6,"circle",298524.9365,298535.8097,298535.8508,NA,308700.9528,NA,NA,59896.7462000001,3659.53259999969,NA,59896.7685999996,373869.6222,376909.8393,NA,NA,NA,NA,3659.61169999991,309027.5146,NA,NA,373869.6365,309369.6163,373869.5722,"New experiment",19,"[0]","dist_present",56,73,"yes","yes",1680,NA,NA,NA,NA,"NR","NR","lp",NA,NA,NA,NA,NA,NA,"practice",0,"NR","in",1
"22",2000.57149999973,29244.6773999998,29244.6773999998,10,10,"n",1,"['1', '8', '7', 'space']","n","#000000","no",340302.2326,1,"neutral","psycho","psycho","psycho",0,"uniform",0,0,0,0,NA,0,0,NA,0,0,0,0,21,21,NA,NA,NA,NA,0,0,0,NA,21,0,21,73.2296414732588,"Mon Oct  4 11:01:09 2021","The main experiment item","yes","green","no","4","circle",NA,"pinging_target_expectations 4.0.osexp","C:\Users\etp-cp-ping\Desktop\LocalPC-EXP",75,"no","mono","no",18,"no","white","no","yes",1050,NA,100,"psycho",21,0,21,"C:/Users/etp-cp-ping/Desktop/LocalPC-EXP/subject-20.csv","psycho",3,22,22,"Lentiform Loewenfeld","3.3.8","['hori', 'vert', 'vert', 'vert', 'hori', 'vert', 'hori', 'hori']","yes",109,"circles","yes",0,NA,2,"legacy",NA,1024,2,48000,-16,"experiment",20,"even","red","no",0,"diamond",298524.9365,298535.8097,298535.8508,NA,308700.9528,NA,NA,59896.7462000001,3659.53259999969,NA,59896.7685999996,376940.5698,380749.215,NA,NA,NA,NA,3659.61169999991,309027.5146,NA,NA,376940.5844,309369.6163,376940.5209,"New experiment",19,"[0]","dist_present",56,15,"yes","yes",1680,NA,NA,NA,NA,"NR","NR","lp",NA,NA,NA,NA,NA,NA,"practice",6,"NR","in",0
"23",2000.9678000001,31245.6451999999,31245.6451999999,10,10,"n",1,"['1', '8', '7', 'space']","n","#000000","no",340302.2326,1,"neutral","psycho","psycho","psycho",0,"uniform",0,0,0,0,NA,0,0,NA,0,0,0,0,22,22,NA,NA,NA,NA,0,0,0,NA,22,0,22,73.2296414732588,"Mon Oct  4 11:01:09 2021","The main experiment item","yes","green","no","7","circle",NA,"pinging_target_expectations 4.0.osexp","C:\Users\etp-cp-ping\Desktop\LocalPC-EXP",75,"no","mono","no",18,"no","white","no","yes",1050,NA,100,"psycho",22,0,22,"C:/Users/etp-cp-ping/Desktop/LocalPC-EXP/subject-20.csv","psycho",3,23,23,"Lentiform Loewenfeld","3.3.8","['vert', 'vert', 'hori', 'vert', 'vert', 'hori', 'hori', 'hori']","no",209,"None","yes",0,NA,2,"legacy",NA,1024,2,48000,-16,"experiment",20,"even","red","no",0,"diamond",298524.9365,298535.8097,298535.8508,NA,308700.9528,NA,NA,59896.7462000001,3659.53259999969,NA,59896.7685999996,380779.5835,384584.04,NA,NA,NA,NA,3659.61169999991,309027.5146,NA,NA,380779.5981,309369.6163,380779.5328,"New experiment",19,"[0]","dist_present",56,18,"yes","yes",1680,NA,NA,NA,NA,"R","NR","lp","Right",NA,NA,NA,NA,NA,"practice",0,"NR","in",0
"24",1354.97659999965,32600.6217999996,32600.6217999996,11,11,"n",1,"['1', '8', '7', 'space']","n","#000000","no",386435.2965,1,"neutral","psycho","psycho","psycho",0,"uniform",1,0,0,0,NA,0,0,NA,0,0,0,0,23,23,NA,NA,NA,NA,0,0,0,NA,23,0,23,73.2296414732588,"Mon Oct  4 11:01:09 2021","The main experiment item","yes","green","no","None","circle",NA,"pinging_target_expectations 4.0.osexp","C:\Users\etp-cp-ping\Desktop\LocalPC-EXP",75,"no","mono","no",18,"no","white","no","yes",1050,NA,100,"psycho",23,0,23,"C:/Users/etp-cp-ping/Desktop/LocalPC-EXP/subject-20.csv","psycho",5,24,24,"Lentiform Loewenfeld","3.3.8","['hori', 'vert', 'hori', 'vert', 'vert', 'hori', 'hori', 'vert']","yes",109,"circles","yes",0,NA,2,"legacy",NA,1024,2,48000,-16,"experiment",20,"even","red","no",2,"diamond",298524.9365,298535.8097,298535.8508,NA,308700.9528,NA,NA,59896.7462000001,3659.53259999969,NA,59896.7685999996,384614.5091,387709.768,NA,NA,NA,NA,3659.61169999991,309027.5146,NA,NA,384614.5252,309369.6163,384614.3371,"New experiment",19,"[0]","dist_absent",56,39,"yes","yes",1680,NA,NA,NA,NA,"NR","NR","lp",NA,"Left",NA,"Left",NA,NA,"practice",0,"R","in",0
"25",2000.07279999997,34600.6945999995,34600.6945999995,11,11,"n",1,"['1', '8', '7', 'space']","n","#000000","no",389086.7304,1,"neutral","psycho","psycho","psycho",0,"uniform",0,0,0,0,NA,0,0,NA,0,0,0,0,24,24,NA,NA,NA,NA,0,0,0,NA,24,0,24,73.2296414732588,"Mon Oct  4 11:01:09 2021","The main experiment item","yes","red","no","0","circle",NA,"pinging_target_expectations 4.0.osexp","C:\Users\etp-cp-ping\Desktop\LocalPC-EXP",75,"no","mono","no",18,"no","white","no","yes",1050,NA,100,"psycho",24,0,24,"C:/Users/etp-cp-ping/Desktop/LocalPC-EXP/subject-20.csv","psycho",6,25,25,"Lentiform Loewenfeld","3.3.8","['vert', 'vert', 'hori', 'hori', 'vert', 'vert', 'hori', 'hori']","yes",109,"diamond","yes",0,NA,2,"legacy",NA,1024,2,48000,-16,"experiment",20,"even","green","no",3,"diamond",298524.9365,298535.8097,298535.8508,NA,308700.9528,NA,NA,59896.7462000001,3659.53259999969,NA,59896.7685999996,387740.3191,391775.6506,NA,NA,NA,NA,3659.61169999991,309027.5146,NA,NA,387740.3333,309369.6163,387740.2697,"New experiment",19,"[0]","dist_present",56,41,"yes","yes",1680,NA,NA,NA,NA,"NR","NR","lp",NA,"Left",NA,NA,NA,NA,"practice",2,"NR","in",1
"26",2000.15210000041,36600.8466999999,36600.8466999999,11,11,"n",1,"['1', '8', '7', 'space']","n","#000000","no",389086.7304,1,"neutral","psycho","psycho","psycho",0,"uniform",0,0,0,0,NA,0,0,NA,0,0,0,0,25,25,NA,NA,NA,NA,0,0,0,NA,25,0,25,73.2296414732588,"Mon Oct  4 11:01:09 2021","The main experiment item","yes","green","no","None","diamond",NA,"pinging_target_expectations 4.0.osexp","C:\Users\etp-cp-ping\Desktop\LocalPC-EXP",75,"no","mono","no",18,"no","white","no","yes",1050,NA,100,"psycho",25,0,25,"C:/Users/etp-cp-ping/Desktop/LocalPC-EXP/subject-20.csv","psycho",6,26,26,"Lentiform Loewenfeld","3.3.8","['hori', 'vert', 'vert', 'vert', 'hori', 'hori', 'hori', 'vert']","yes",109,"circles","yes",0,NA,2,"legacy",NA,1024,2,48000,-16,"experiment",20,"even","red","no",0,"circle",298524.9365,298535.8097,298535.8508,NA,308700.9528,NA,NA,59896.7462000001,3659.53259999969,NA,59896.7685999996,391806.128,395851.7674,NA,NA,NA,NA,3659.61169999991,309027.5146,NA,NA,391806.1426,309369.6163,391806.0782,"New experiment",19,"[0]","dist_absent",56,19,"yes","yes",1680,NA,NA,NA,NA,"NR","NR","lp",NA,NA,NA,NA,NA,NA,"practice",3,"NR","in",0
"27",1705.31909999996,38306.1657999999,38306.1657999999,12,12,"n",1,"['1', '8', '7', 'space']","n","#000000","no",389086.7304,1,"neutral","psycho","psycho","psycho",0,"uniform",1,0,0,0,NA,0,0,NA,0,0,0,0,26,26,NA,NA,NA,NA,0,0,0,NA,26,0,26,73.2296414732588,"Mon Oct  4 11:01:09 2021","The main experiment item","yes","green","no","7","circle",NA,"pinging_target_expectations 4.0.osexp","C:\Users\etp-cp-ping\Desktop\LocalPC-EXP",75,"no","mono","no",18,"no","white","no","yes",1050,NA,100,"psycho",26,0,26,"C:/Users/etp-cp-ping/Desktop/LocalPC-EXP/subject-20.csv","psycho",6,27,27,"Lentiform Loewenfeld","3.3.8","['hori', 'vert', 'hori', 'hori', 'vert', 'hori', 'vert', 'vert']","no",209,"None","yes",0,NA,2,"legacy",NA,1024,2,48000,-16,"experiment",20,"even","red","no",0,"diamond",298524.9365,298535.8097,298535.8508,NA,308700.9528,NA,NA,59896.7462000001,3659.53259999969,NA,59896.7685999996,395884.2179,399293.8166,NA,NA,NA,NA,3659.61169999991,309027.5146,NA,NA,395884.2321,309369.6163,395884.1691,"New experiment",19,"[0]","dist_present",56,18,"yes","yes",1680,NA,NA,NA,NA,"R","NR","lp","Right",NA,NA,NA,NA,NA,"practice",0,"NR","in",0
"28",1795.43620000005,40101.602,40101.602,12,12,"n",1,"['1', '8', '7', 'space']","n","#000000","no",400718.486,1,"neutral","psycho","psycho","psycho",0,"uniform",0,0,0,0,NA,0,0,NA,0,0,0,0,27,27,NA,NA,NA,NA,0,0,0,NA,27,0,27,73.2296414732588,"Mon Oct  4 11:01:09 2021","The main experiment item","yes","green","no","None","diamond",NA,"pinging_target_expectations 4.0.osexp","C:\Users\etp-cp-ping\Desktop\LocalPC-EXP",75,"no","mono","no",18,"no","white","no","yes",1050,NA,100,"psycho",27,0,27,"C:/Users/etp-cp-ping/Desktop/LocalPC-EXP/subject-20.csv","psycho",7,28,28,"Lentiform Loewenfeld","3.3.8","['hori', 'vert', 'vert', 'hori', 'vert', 'hori', 'vert', 'hori']","no",209,"None","yes",0,NA,2,"legacy",NA,1024,2,48000,-16,"experiment",20,"even","red","no",4,"circle",298524.9365,298535.8097,298535.8508,NA,308700.9528,NA,NA,59896.7462000001,3659.53259999969,NA,59896.7685999996,399324.5806,403261.7396,NA,NA,NA,NA,3659.61169999991,309027.5146,NA,NA,399324.595,309369.6163,399324.5333,"New experiment",19,"[0]","dist_absent",56,59,"yes","yes",1680,NA,NA,NA,NA,"NR","NR","lp",NA,NA,NA,NA,NA,NA,"practice",0,"R","in",1
"29",2000.07830000005,42101.6803,42101.6803,12,12,"n",1,"['1', '8', '7', 'space']","n","#000000","no",400718.486,1,"neutral","psycho","psycho","psycho",0,"uniform",0,0,0,0,NA,0,0,NA,0,0,0,0,28,28,NA,NA,NA,NA,0,0,0,NA,28,0,28,73.2296414732588,"Mon Oct  4 11:01:09 2021","The main experiment item","yes","green","no","1","circle",NA,"pinging_target_expectations 4.0.osexp","C:\Users\etp-cp-ping\Desktop\LocalPC-EXP",75,"no","mono","no",18,"no","white","no","yes",1050,NA,100,"psycho",28,0,28,"C:/Users/etp-cp-ping/Desktop/LocalPC-EXP/subject-20.csv","psycho",7,29,29,"Lentiform Loewenfeld","3.3.8","['vert', 'hori', 'vert', 'hori', 'hori', 'vert', 'hori', 'vert']","yes",109,"circles","yes",0,NA,2,"legacy",NA,1024,2,48000,-16,"experiment",20,"even","red","no",7,"diamond",298524.9365,298535.8097,298535.8508,NA,308700.9528,NA,NA,59896.7462000001,3659.53259999969,NA,59896.7685999996,403292.4432,407189.054,NA,NA,NA,NA,3659.61169999991,309027.5146,NA,NA,403292.4576,309369.6163,403292.3936,"New experiment",19,"[0]","dist_present",56,82,"yes","yes",1680,NA,NA,NA,NA,"NR","NR","lp",NA,NA,NA,NA,NA,NA,"practice",4,"NR","in",0
"30",1835.98189999972,43937.6621999997,43937.6621999997,13,13,"n",1,"['1', '8', '7', 'space']","n","#000000","no",408249.7102,1,"neutral","psycho","psycho","psycho",0,"uniform",1,0,0,0,NA,0,0,NA,0,0,0,0,29,29,NA,NA,NA,NA,0,0,0,NA,29,0,29,73.2296414732588,"Mon Oct  4 11:01:09 2021","The main experiment item","yes","green","no","None","diamond",NA,"pinging_target_expectations 4.0.osexp","C:\Users\etp-cp-ping\Desktop\LocalPC-EXP",75,"no","mono","no",18,"no","white","no","yes",1050,NA,100,"psycho",29,0,29,"C:/Users/etp-cp-ping/Desktop/LocalPC-EXP/subject-20.csv","psycho",9,30,30,"Lentiform Loewenfeld","3.3.8","['vert', 'vert', 'hori', 'hori', 'vert', 'vert', 'hori', 'hori']","no",209,"None","yes",0,NA,2,"legacy",NA,1024,2,48000,-16,"experiment",20,"even","red","no",3,"circle",298524.9365,298535.8097,298535.8508,NA,308700.9528,NA,NA,59896.7462000001,3659.53259999969,NA,59896.7685999996,407221.3279,410861.8037,NA,NA,NA,NA,3659.61169999991,309027.5146,NA,NA,407221.3424,309369.6163,407221.2788,"New experiment",19,"[0]","dist_absent",56,49,"yes","yes",1680,NA,NA,NA,NA,"NR","NR","lp",NA,"Left",NA,NA,NA,NA,"practice",7,"NR","in",0
"31",2000.05400000012,45937.7161999998,45937.7161999998,13,13,"n",1,"['1', '8', '7', 'space']","n","#000000","no",408249.7102,1,"neutral","psycho","psycho","psycho",0,"uniform",0,0,0,0,NA,0,0,NA,0,0,0,0,30,30,NA,NA,NA,NA,0,0,0,NA,30,0,30,73.2296414732588,"Mon Oct  4 11:01:09 2021","The main experiment item","yes","red","no","0","circle",NA,"pinging_target_expectations 4.0.osexp","C:\Users\etp-cp-ping\Desktop\LocalPC-EXP",75,"no","mono","no",18,"no","white","no","yes",1050,NA,100,"psycho",30,0,30,"C:/Users/etp-cp-ping/Desktop/LocalPC-EXP/subject-20.csv","psycho",9,31,31,"Lentiform Loewenfeld","3.3.8","['hori', 'hori', 'vert', 'hori', 'hori', 'vert', 'vert', 'vert']","yes",109,"circles","yes",0,NA,2,"legacy",NA,1024,2,48000,-16,"experiment",20,"even","green","no",3,"diamond",298524.9365,298535.8097,298535.8508,NA,308700.9528,NA,NA,59896.7462000001,3659.53259999969,NA,59896.7685999996,410892.3503,414731.2238,NA,NA,NA,NA,3659.61169999991,309027.5146,NA,NA,410892.3649,309369.6163,410892.3015,"New experiment",19,"[0]","dist_present",56,41,"yes","yes",1680,NA,NA,NA,NA,"R","NR","lp",NA,"Left",NA,NA,NA,NA,"practice",3,"NR","in",1
"32",1821.49540000001,47759.2115999999,47759.2115999999,14,14,"n",1,"['1', '8', '7', 'space']","n","#000000","no",408249.7102,1,"neutral","psycho","psycho","psycho",0,"uniform",1,0,0,0,NA,0,0,NA,0,0,0,0,31,31,NA,NA,NA,NA,0,0,0,NA,31,0,31,73.2296414732588,"Mon Oct  4 11:01:09 2021","The main experiment item","yes","green","no","0","diamond",NA,"pinging_target_expectations 4.0.osexp","C:\Users\etp-cp-ping\Desktop\LocalPC-EXP",75,"no","mono","no",18,"no","white","no","yes",1050,NA,100,"psycho",31,0,31,"C:/Users/etp-cp-ping/Desktop/LocalPC-EXP/subject-20.csv","psycho",9,32,32,"Lentiform Loewenfeld","3.3.8","['hori', 'hori', 'hori', 'vert', 'vert', 'vert', 'hori', 'vert']","no",209,"None","yes",0,NA,2,"legacy",NA,1024,2,48000,-16,"experiment",20,"even","red","no",7,"circle",298524.9365,298535.8097,298535.8508,NA,308700.9528,NA,NA,59896.7462000001,3659.53259999969,NA,59896.7685999996,414761.5454,418461.827,NA,NA,NA,NA,3659.61169999991,309027.5146,NA,NA,414761.5596,309369.6163,414761.497,"New experiment",19,"[0]","dist_present",56,81,"yes","yes",1680,NA,NA,NA,NA,"NR","R","lp",NA,"Right",NA,NA,NA,NA,"practice",3,"R","in",0
"33",1220.21409999981,48979.4256999997,48979.4256999997,15,15,"n",1,"['1', '8', '7', 'space']","n","#000000","no",418839.836,1,"neutral","psycho","psycho","psycho",0,"uniform",1,0,0,0,NA,0,0,NA,0,0,0,0,32,32,NA,NA,NA,NA,0,0,0,NA,32,0,32,73.2296414732588,"Mon Oct  4 11:01:09 2021","The main experiment item","yes","green","no","None","diamond",NA,"pinging_target_expectations 4.0.osexp","C:\Users\etp-cp-ping\Desktop\LocalPC-EXP",75,"no","mono","no",18,"no","white","no","yes",1050,NA,100,"psycho",32,0,32,"C:/Users/etp-cp-ping/Desktop/LocalPC-EXP/subject-20.csv","psycho",10,33,33,"Lentiform Loewenfeld","3.3.8","['vert', 'vert', 'vert', 'vert', 'hori', 'hori', 'hori', 'hori']","yes",109,"circles","yes",0,NA,2,"legacy",NA,1024,2,48000,-16,"experiment",20,"even","red","no",6,"circle",298524.9365,298535.8097,298535.8508,NA,308700.9528,NA,NA,59896.7462000001,3659.53259999969,NA,59896.7685999996,418492.4989,421501.9146,NA,NA,NA,NA,3659.61169999991,309027.5146,NA,NA,418492.5135,309369.6163,418492.4459,"New experiment",19,"[0]","dist_absent",56,79,"yes","yes",1680,NA,NA,NA,NA,"NR","NR","lp",NA,"Right",NA,"Right",NA,NA,"practice",7,"NR","in",1
"34",1445.41610000032,50424.8418,50424.8418,15,15,"n",1,"['1', '8', '7', 'space']","n","#000000","no",422970.9246,1,"neutral","psycho","psycho","psycho",0,"uniform",0,0,0,0,NA,0,0,NA,0,0,0,0,33,33,NA,NA,NA,NA,0,0,0,NA,33,0,33,73.2296414732588,"Mon Oct  4 11:01:09 2021","The main experiment item","yes","green","no","2","circle",NA,"pinging_target_expectations 4.0.osexp","C:\Users\etp-cp-ping\Desktop\LocalPC-EXP",75,"no","mono","no",18,"no","white","no","yes",1050,NA,100,"psycho",33,0,33,"C:/Users/etp-cp-ping/Desktop/LocalPC-EXP/subject-20.csv","psycho",12,34,34,"Lentiform Loewenfeld","3.3.8","['vert', 'vert', 'hori', 'hori', 'vert', 'vert', 'hori', 'hori']","no",209,"None","yes",0,NA,2,"legacy",NA,1024,2,48000,-16,"experiment",20,"even","red","no",4,"diamond",298524.9365,298535.8097,298535.8508,NA,308700.9528,NA,NA,59896.7462000001,3659.53259999969,NA,59896.7685999996,421532.7275,424861.7906,NA,NA,NA,NA,3659.61169999991,309027.5146,NA,NA,421532.7419,309369.6163,421532.6776,"New experiment",19,"[0]","dist_present",56,53,"yes","yes",1680,NA,NA,NA,NA,"NR","NR","lp","Left",NA,"Left",NA,NA,NA,"practice",6,"NR","in",1
"35",1876.54719999997,52301.389,52301.389,16,16,"n",1,"['1', '8', '7', 'space']","n","#000000","no",422970.9246,1,"neutral","psycho","psycho","psycho",0,"uniform",1,0,0,0,NA,0,0,NA,0,0,0,0,34,34,NA,NA,NA,NA,0,0,0,NA,34,0,34,73.2296414732588,"Mon Oct  4 11:01:09 2021","The main experiment item","yes","red","no","None","diamond",NA,"pinging_target_expectations 4.0.osexp","C:\Users\etp-cp-ping\Desktop\LocalPC-EXP",75,"no","mono","no",18,"no","white","no","yes",1050,NA,100,"psycho",34,0,34,"C:/Users/etp-cp-ping/Desktop/LocalPC-EXP/subject-20.csv","psycho",12,35,35,"Lentiform Loewenfeld","3.3.8","['vert', 'hori', 'vert', 'vert', 'hori', 'hori', 'vert', 'hori']","yes",109,"diamond","yes",0,NA,2,"legacy",NA,1024,2,48000,-16,"experiment",20,"even","green","no",1,"circle",298524.9365,298535.8097,298535.8508,NA,308700.9528,NA,NA,59896.7462000001,3659.53259999969,NA,59896.7685999996,424893.1838,428941.791,NA,NA,NA,NA,3659.61169999991,309027.5146,NA,NA,424893.1983,309369.6163,424893.1344,"New experiment",19,"[0]","dist_absent",56,29,"yes","yes",1680,NA,NA,NA,NA,"NR","NR","lp",NA,"Left",NA,NA,NA,NA,"practice",4,"NR","in",0
"36",857.196399999782,53158.5853999997,53158.5853999997,17,17,"n",1,"['1', '8', '7', 'space']","n","#000000","no",429300.6059,1,"neutral","psycho","psycho","psycho",0,"uniform",1,0,0,0,NA,0,0,NA,0,0,0,0,35,35,NA,NA,NA,NA,0,0,0,NA,35,0,35,73.2296414732588,"Mon Oct  4 11:01:09 2021","The main experiment item","yes","red","no","4","circle",NA,"pinging_target_expectations 4.0.osexp","C:\Users\etp-cp-ping\Desktop\LocalPC-EXP",75,"no","mono","no",18,"no","white","no","yes",1050,NA,100,"psycho",35,0,35,"C:/Users/etp-cp-ping/Desktop/LocalPC-EXP/subject-20.csv","psycho",13,36,36,"Lentiform Loewenfeld","3.3.8","['vert', 'hori', 'hori', 'vert', 'hori', 'vert', 'vert', 'hori']","yes",109,"diamond","yes",0,NA,2,"legacy",NA,1024,2,48000,-16,"experiment",20,"even","green","no",5,"diamond",298524.9365,298535.8097,298535.8508,NA,308700.9528,NA,NA,59896.7462000001,3659.53259999969,NA,59896.7685999996,428972.3183,431805.8945,NA,NA,NA,NA,3659.61169999991,309027.5146,NA,NA,428972.3324,309369.6163,428972.2701,"New experiment",19,"[0]","dist_present",56,65,"yes","yes",1680,NA,NA,NA,NA,"NR","NR","lp",NA,"Right",NA,NA,NA,NA,"practice",1,"NR","in",1
"37",1664.20490000019,54822.7902999999,54822.7902999999,18,18,"n",1,"['1', '8', '7', 'space']","n","#000000","no",429300.6059,1,"neutral","psycho","psycho","psycho",0,"uniform",1,0,0,0,NA,0,0,NA,0,0,0,0,36,36,NA,NA,NA,NA,0,0,0,NA,36,0,36,73.2296414732588,"Mon Oct  4 11:01:09 2021","The main experiment item","yes","green","no","3","diamond",NA,"pinging_target_expectations 4.0.osexp","C:\Users\etp-cp-ping\Desktop\LocalPC-EXP",75,"no","mono","no",18,"no","white","no","yes",1050,NA,100,"psycho",36,0,36,"C:/Users/etp-cp-ping/Desktop/LocalPC-EXP/subject-20.csv","psycho",13,37,37,"Lentiform Loewenfeld","3.3.8","['hori', 'vert', 'hori', 'vert', 'vert', 'vert', 'hori', 'hori']","no",209,"None","yes",0,NA,2,"legacy",NA,1024,2,48000,-16,"experiment",20,"even","red","no",4,"circle",298524.9365,298535.8097,298535.8508,NA,308700.9528,NA,NA,59896.7462000001,3659.53259999969,NA,59896.7685999996,431836.5916,435597.8059,NA,NA,NA,NA,3659.61169999991,309027.5146,NA,NA,431836.6058,309369.6163,431836.5431,"New experiment",19,"[0]","dist_present",56,54,"yes","yes",1680,NA,NA,NA,NA,"NR","NR","lp","Left",NA,NA,NA,NA,NA,"practice",5,"NR","in",1
"38",2000.31780000019,56823.1081000001,56823.1081000001,18,18,"n",1,"['1', '8', '7', 'space']","n","#000000","no",435998.2195,1,"neutral","psycho","psycho","psycho",0,"uniform",0,0,0,0,NA,0,0,NA,0,0,0,0,37,37,NA,NA,NA,NA,0,0,0,NA,37,0,37,73.2296414732588,"Mon Oct  4 11:01:09 2021","The main experiment item","yes","red","no","0","circle",NA,"pinging_target_expectations 4.0.osexp","C:\Users\etp-cp-ping\Desktop\LocalPC-EXP",75,"no","mono","no",18,"no","white","no","yes",1050,NA,100,"psycho",37,0,37,"C:/Users/etp-cp-ping/Desktop/LocalPC-EXP/subject-20.csv","psycho",14,38,38,"Lentiform Loewenfeld","3.3.8","['hori', 'vert', 'vert', 'vert', 'hori', 'hori', 'hori', 'vert']","yes",109,"diamond","yes",0,NA,2,"legacy",NA,1024,2,48000,-16,"experiment",20,"even","green","no",1,"diamond",298524.9365,298535.8097,298535.8508,NA,308700.9528,NA,NA,59896.7462000001,3659.53259999969,NA,59896.7685999996,435628.3772,439274.6642,NA,NA,NA,NA,3659.61169999991,309027.5146,NA,NA,435628.3917,309369.6163,435628.3262,"New experiment",19,"[0]","dist_present",56,21,"yes","yes",1680,NA,NA,NA,NA,"NR","NR","lp",NA,"Left",NA,NA,NA,NA,"practice",4,"NR","in",1
"39",2000.19700000033,58823.3051000005,58823.3051000005,18,18,"n",1,"['1', '8', '7', 'space']","n","#000000","no",435998.2195,1,"neutral","psycho","psycho","psycho",0,"uniform",0,0,0,0,NA,0,0,NA,0,0,0,0,38,38,NA,NA,NA,NA,0,0,0,NA,38,0,38,73.2296414732588,"Mon Oct  4 11:01:09 2021","The main experiment item","yes","red","no","7","diamond",NA,"pinging_target_expectations 4.0.osexp","C:\Users\etp-cp-ping\Desktop\LocalPC-EXP",75,"no","mono","no",18,"no","white","no","yes",1050,NA,100,"psycho",38,0,38,"C:/Users/etp-cp-ping/Desktop/LocalPC-EXP/subject-20.csv","psycho",14,39,39,"Lentiform Loewenfeld","3.3.8","['vert', 'vert', 'vert', 'hori', 'hori', 'vert', 'hori', 'hori']","no",209,"None","yes",0,NA,2,"legacy",NA,1024,2,48000,-16,"experiment",20,"even","green","no",2,"circle",298524.9365,298535.8097,298535.8508,NA,308700.9528,NA,NA,59896.7462000001,3659.53259999969,NA,59896.7685999996,439305.2578,443233.0425,NA,NA,NA,NA,3659.61169999991,309027.5146,NA,NA,439305.2721,309369.6163,439305.209,"New experiment",19,"[0]","dist_present",56,38,"yes","yes",1680,NA,NA,NA,NA,"NR","NR","lp",NA,NA,NA,NA,NA,NA,"practice",1,"NR","in",0
"40",1583.99050000025,60407.2956000007,60407.2956000007,18,18,"n",1,"['1', '8', '7', 'space']","n","#000000","no",435998.2195,1,"neutral","psycho","psycho","psycho",0,"uniform",0,0,0,0,NA,0,0,NA,0,0,0,0,39,39,NA,NA,NA,NA,0,0,0,NA,39,0,39,73.2296414732588,"Mon Oct  4 11:01:09 2021","The main experiment item","yes","red","no","4","circle",NA,"pinging_target_expectations 4.0.osexp","C:\Users\etp-cp-ping\Desktop\LocalPC-EXP",75,"no","mono","no",18,"no","white","no","yes",1050,NA,100,"psycho",39,0,39,"C:/Users/etp-cp-ping/Desktop/LocalPC-EXP/subject-20.csv","psycho",14,40,40,"Lentiform Loewenfeld","3.3.8","['hori', 'vert', 'hori', 'vert', 'vert', 'hori', 'hori', 'vert']","yes",109,"diamond","yes",0,NA,2,"legacy",NA,1024,2,48000,-16,"experiment",20,"even","green","no",3,"diamond",298524.9365,298535.8097,298535.8508,NA,308700.9528,NA,NA,59896.7462000001,3659.53259999969,NA,59896.7685999996,443263.449,446509.8321,NA,NA,NA,NA,3659.61169999991,309027.5146,NA,NA,443263.4633,309369.6163,443263.401,"New experiment",19,"[0]","dist_present",56,45,"yes","yes",1680,NA,NA,NA,NA,"NR","NR","lp",NA,"Left",NA,NA,NA,NA,"practice",2,"NR","in",0
"41",2000.87059999985,62408.1662000006,62408.1662000006,18,18,"n",1,"['1', '8', '7', 'space']","n","#000000","no",435998.2195,1,"neutral","psycho","psycho","psycho",0,"uniform",0,0,0,0,NA,0,0,NA,0,0,0,0,40,40,NA,NA,NA,NA,0,0,0,NA,40,0,40,73.2296414732588,"Mon Oct  4 11:01:09 2021","The main experiment item","yes","green","no","None","diamond",NA,"pinging_target_expectations 4.0.osexp","C:\Users\etp-cp-ping\Desktop\LocalPC-EXP",75,"no","mono","no",18,"no","white","no","yes",1050,NA,100,"psycho",40,0,40,"C:/Users/etp-cp-ping/Desktop/LocalPC-EXP/subject-20.csv","psycho",14,41,41,"Lentiform Loewenfeld","3.3.8","['hori', 'vert', 'hori', 'vert', 'vert', 'vert', 'hori', 'hori']","yes",109,"diamond","yes",0,NA,2,"legacy",NA,1024,2,48000,-16,"experiment",20,"even","red","no",3,"circle",298524.9365,298535.8097,298535.8508,NA,308700.9528,NA,NA,59896.7462000001,3659.53259999969,NA,59896.7685999996,446540.5747,450591.3329,NA,NA,NA,NA,3659.61169999991,309027.5146,NA,NA,446540.589,309369.6163,446540.5253,"New experiment",19,"[0]","dist_absent",56,49,"yes","yes",1680,NA,NA,NA,NA,"R","NR","lp",NA,"Left",NA,NA,NA,NA,"practice",3,"NR","in",0
"42",1196.37289999996,63604.5391000005,63604.5391000005,19,19,"n",1,"['1', '8', '7', 'space']","n","#000000","no",435998.2195,1,"neutral","psycho","psycho","psycho",0,"uniform",1,0,0,0,NA,0,0,NA,0,0,0,0,41,41,NA,NA,NA,NA,0,0,0,NA,41,0,41,73.2296414732588,"Mon Oct  4 11:01:09 2021","The main experiment item","yes","green","no","None","diamond",NA,"pinging_target_expectations 4.0.osexp","C:\Users\etp-cp-ping\Desktop\LocalPC-EXP",75,"no","mono","no",18,"no","white","no","yes",1050,NA,100,"psycho",41,0,41,"C:/Users/etp-cp-ping/Desktop/LocalPC-EXP/subject-20.csv","psycho",14,42,42,"Lentiform Loewenfeld","3.3.8","['hori', 'vert', 'vert', 'vert', 'hori', 'hori', 'hori', 'vert']","no",209,"None","yes",0,NA,2,"legacy",NA,1024,2,48000,-16,"experiment",20,"even","red","no",3,"circle",298524.9365,298535.8097,298535.8508,NA,308700.9528,NA,NA,59896.7462000001,3659.53259999969,NA,59896.7685999996,450621.7406,453933.8388,NA,NA,NA,NA,3659.61169999991,309027.5146,NA,NA,450621.7548,309369.6163,450621.6904,"New experiment",19,"[0]","dist_absent",56,49,"yes","yes",1680,NA,NA,NA,NA,"R","R","lp",NA,"Left",NA,NA,NA,NA,"practice",3,"R","in",0
"43",2000.8972999999,65605.4364000004,65605.4364000004,19,19,"n",1,"['1', '8', '7', 'space']","n","#000000","no",435998.2195,1,"neutral","psycho","psycho","psycho",0,"uniform",0,0,0,0,NA,0,0,NA,0,0,0,0,42,42,NA,NA,NA,NA,0,0,0,NA,42,0,42,73.2296414732588,"Mon Oct  4 11:01:09 2021","The main experiment item","yes","green","no","7","diamond",NA,"pinging_target_expectations 4.0.osexp","C:\Users\etp-cp-ping\Desktop\LocalPC-EXP",75,"no","mono","no",18,"no","white","no","yes",1050,NA,100,"psycho",42,0,42,"C:/Users/etp-cp-ping/Desktop/LocalPC-EXP/subject-20.csv","psycho",14,43,43,"Lentiform Loewenfeld","3.3.8","['hori', 'vert', 'vert', 'vert', 'vert', 'hori', 'hori', 'hori']","yes",109,"circles","yes",0,NA,2,"legacy",NA,1024,2,48000,-16,"experiment",20,"even","red","no",6,"circle",298524.9365,298535.8097,298535.8508,NA,308700.9528,NA,NA,59896.7462000001,3659.53259999969,NA,59896.7685999996,453964.4237,457772.6632,NA,NA,NA,NA,3659.61169999991,309027.5146,NA,NA,453964.4386,309369.6163,453964.3739,"New experiment",19,"[0]","dist_present",56,78,"yes","yes",1680,NA,NA,NA,NA,"NR","NR","lp",NA,NA,NA,NA,NA,NA,"practice",3,"R","in",1
"44",2000.51909999998,67605.9555000004,67605.9555000004,19,19,"n",1,"['1', '8', '7', 'space']","n","#000000","no",435998.2195,1,"neutral","psycho","psycho","psycho",0,"uniform",0,0,0,0,NA,0,0,NA,0,0,0,0,43,43,NA,NA,NA,NA,0,0,0,NA,43,0,43,73.2296414732588,"Mon Oct  4 11:01:09 2021","The main experiment item","yes","red","no","3","diamond",NA,"pinging_target_expectations 4.0.osexp","C:\Users\etp-cp-ping\Desktop\LocalPC-EXP",75,"no","mono","no",18,"no","white","no","yes",1050,NA,100,"psycho",43,0,43,"C:/Users/etp-cp-ping/Desktop/LocalPC-EXP/subject-20.csv","psycho",14,44,44,"Lentiform Loewenfeld","3.3.8","['vert', 'hori', 'vert', 'hori', 'hori', 'vert', 'hori', 'vert']","yes",109,"circles","yes",0,NA,2,"legacy",NA,1024,2,48000,-16,"experiment",20,"even","green","no",5,"circle",298524.9365,298535.8097,298535.8508,NA,308700.9528,NA,NA,59896.7462000001,3659.53259999969,NA,59896.7685999996,457804.1474,461631.3368,NA,NA,NA,NA,3659.61169999991,309027.5146,NA,NA,457804.1622,309369.6163,457804.0978,"New experiment",19,"[0]","dist_present",56,64,"yes","yes",1680,NA,NA,NA,NA,"NR","NR","lp",NA,NA,NA,NA,NA,NA,"practice",6,"NR","in",0
"45",1637.3349999999,69243.2905000003,69243.2905000003,20,20,"n",1,"['1', '8', '7', 'space']","n","#000000","no",435998.2195,1,"neutral","psycho","psycho","psycho",0,"uniform",1,0,0,0,NA,0,0,NA,0,0,0,0,44,44,NA,NA,NA,NA,0,0,0,NA,44,0,44,73.2296414732588,"Mon Oct  4 11:01:09 2021","The main experiment item","yes","red","no","None","diamond",NA,"pinging_target_expectations 4.0.osexp","C:\Users\etp-cp-ping\Desktop\LocalPC-EXP",75,"no","mono","no",18,"no","white","no","yes",1050,NA,100,"psycho",44,0,44,"C:/Users/etp-cp-ping/Desktop/LocalPC-EXP/subject-20.csv","psycho",14,45,45,"Lentiform Loewenfeld","3.3.8","['vert', 'vert', 'hori', 'hori', 'vert', 'hori', 'hori', 'vert']","no",209,"None","yes",0,NA,2,"legacy",NA,1024,2,48000,-16,"experiment",20,"even","green","no",4,"circle",298524.9365,298535.8097,298535.8508,NA,308700.9528,NA,NA,59896.7462000001,3659.53259999969,NA,59896.7685999996,461661.8409,465165.847,NA,NA,NA,NA,3659.61169999991,309027.5146,NA,NA,461661.8554,309369.6163,461661.7915,"New experiment",19,"[0]","dist_absent",56,59,"yes","yes",1680,NA,NA,NA,NA,"NR","NR","lp",NA,NA,NA,NA,NA,NA,"practice",5,"NR","in",0
"46",1337.85810000019,70581.1486000005,70581.1486000005,20,20,"n",1,"['1', '8', '7', 'space']","n","#000000","no",435998.2195,1,"neutral","psycho","psycho","psycho",0,"uniform",0,0,0,0,NA,0,0,NA,0,0,0,0,45,45,NA,NA,NA,NA,0,0,0,NA,45,0,45,73.2296414732588,"Mon Oct  4 11:01:09 2021","The main experiment item","yes","green","no","2","circle",NA,"pinging_target_expectations 4.0.osexp","C:\Users\etp-cp-ping\Desktop\LocalPC-EXP",75,"no","mono","no",18,"no","white","no","yes",1050,NA,100,"psycho",45,0,45,"C:/Users/etp-cp-ping/Desktop/LocalPC-EXP/subject-20.csv","psycho",14,46,46,"Lentiform Loewenfeld","3.3.8","['vert', 'vert', 'hori', 'hori', 'vert', 'hori', 'hori', 'vert']","yes",109,"diamond","yes",0,NA,2,"legacy",NA,1024,2,48000,-16,"experiment",20,"even","red","no",1,"diamond",298524.9365,298535.8097,298535.8508,NA,308700.9528,NA,NA,59896.7462000001,3659.53259999969,NA,59896.7685999996,465197.0242,468733.7566,NA,NA,NA,NA,3659.61169999991,309027.5146,NA,NA,465197.0387,309369.6163,465196.9735,"New experiment",19,"[0]","dist_present",56,23,"yes","yes",1680,NA,NA,NA,NA,"NR","NR","lp",NA,NA,NA,NA,NA,NA,"practice",4,"NR","in",1
"47",1887.61000000022,72468.7586000007,72468.7586000007,21,21,"n",1,"['1', '8', '7', 'space']","n","#000000","no",470345.9199,1,"neutral","psycho","psycho","psycho",0,"uniform",1,0,0,0,NA,0,0,NA,0,0,0,0,46,46,NA,NA,NA,NA,0,0,0,NA,46,0,46,73.2296414732588,"Mon Oct  4 11:01:09 2021","The main experiment item","yes","green","no","6","circle",NA,"pinging_target_expectations 4.0.osexp","C:\Users\etp-cp-ping\Desktop\LocalPC-EXP",75,"no","mono","no",18,"no","white","no","yes",1050,NA,100,"psycho",46,0,46,"C:/Users/etp-cp-ping/Desktop/LocalPC-EXP/subject-20.csv","psycho",15,47,47,"Lentiform Loewenfeld","3.3.8","['hori', 'vert', 'hori', 'hori', 'hori', 'vert', 'vert', 'vert']","no",209,"None","yes",0,NA,2,"legacy",NA,1024,2,48000,-16,"experiment",20,"even","red","no",7,"diamond",298524.9365,298535.8097,298535.8508,NA,308700.9528,NA,NA,59896.7462000001,3659.53259999969,NA,59896.7685999996,468764.5152,472557.8606,NA,NA,NA,NA,3659.61169999991,309027.5146,NA,NA,468764.5303,309369.6163,468764.4589,"New experiment",19,"[0]","dist_present",56,87,"yes","yes",1680,NA,NA,NA,NA,"NR","NR","lp",NA,NA,NA,NA,NA,NA,"practice",1,"NR","in",0
"48",1222.53300000011,73691.2916000008,73691.2916000008,22,22,"n",1,"['1', '8', '7', 'space']","n","#000000","no",472916.4695,1,"neutral","psycho","psycho","psycho",0,"uniform",1,0,0,0,NA,0,0,NA,0,0,0,0,47,47,NA,NA,NA,NA,0,0,0,NA,47,0,47,73.2296414732588,"Mon Oct  4 11:01:09 2021","The main experiment item","yes","red","no","6","circle",NA,"pinging_target_expectations 4.0.osexp","C:\Users\etp-cp-ping\Desktop\LocalPC-EXP",75,"no","mono","no",18,"no","white","no","yes",1050,NA,100,"psycho",47,0,47,"C:/Users/etp-cp-ping/Desktop/LocalPC-EXP/subject-20.csv","psycho",16,48,48,"Lentiform Loewenfeld","3.3.8","['vert', 'vert', 'hori', 'hori', 'vert', 'hori', 'vert', 'hori']","yes",109,"circles","yes",0,NA,2,"legacy",NA,1024,2,48000,-16,"experiment",20,"even","green","no",7,"diamond",298524.9365,298535.8097,298535.8508,NA,308700.9528,NA,NA,59896.7462000001,3659.53259999969,NA,59896.7685999996,472588.9365,475597.8902,NA,NA,NA,NA,3659.61169999991,309027.5146,NA,NA,472588.9512,309369.6163,472588.8869,"New experiment",19,"[0]","dist_present",56,87,"yes","yes",1680,NA,NA,NA,NA,"R","R","lp",NA,NA,NA,NA,NA,NA,"practice",7,"NR","in",1
"49",1831.2092000001,75522.5008000009,75522.5008000009,23,23,"n",1,"['1', '8', '7', 'space']","n","#000000","no",475998.5439,1,"neutral","psycho","psycho","psycho",0,"uniform",1,0,0,0,NA,0,0,NA,0,0,0,0,48,48,NA,NA,NA,NA,0,0,0,NA,48,0,48,73.2296414732588,"Mon Oct  4 11:01:09 2021","The main experiment item","yes","green","no","6","circle",NA,"pinging_target_expectations 4.0.osexp","C:\Users\etp-cp-ping\Desktop\LocalPC-EXP",75,"no","mono","no",18,"no","white","no","yes",1050,NA,100,"psycho",48,0,48,"C:/Users/etp-cp-ping/Desktop/LocalPC-EXP/subject-20.csv","psycho",17,49,49,"Lentiform Loewenfeld","3.3.8","['vert', 'hori', 'vert', 'hori', 'vert', 'vert', 'hori', 'hori']","yes",109,"diamond","yes",0,NA,2,"legacy",NA,1024,2,48000,-16,"experiment",20,"even","red","no",4,"diamond",298524.9365,298535.8097,298535.8508,NA,308700.9528,NA,NA,59896.7462000001,3659.53259999969,NA,59896.7685999996,475628.6673,479149.8446,NA,NA,NA,NA,3659.61169999991,309027.5146,NA,NA,475628.6814,309369.6163,475628.6186,"New experiment",19,"[0]","dist_present",56,57,"yes","yes",1680,NA,NA,NA,NA,"NR","R","lp","Right",NA,"Right",NA,NA,NA,"practice",7,"R","in",1
"50",1323.78539999988,76846.2862000008,76846.2862000008,23,23,"n",1,"['1', '8', '7', 'space']","n","#000000","no",475998.5439,1,"neutral","psycho","psycho","psycho",0,"uniform",0,0,0,0,NA,0,0,NA,0,0,0,0,49,49,NA,NA,NA,NA,0,0,0,NA,49,0,49,73.2296414732588,"Mon Oct  4 11:01:09 2021","The main experiment item","yes","red","no","3","diamond",NA,"pinging_target_expectations 4.0.osexp","C:\Users\etp-cp-ping\Desktop\LocalPC-EXP",75,"no","mono","no",18,"no","white","no","yes",1050,NA,100,"psycho",49,0,49,"C:/Users/etp-cp-ping/Desktop/LocalPC-EXP/subject-20.csv","psycho",17,50,50,"Lentiform Loewenfeld","3.3.8","['hori', 'hori', 'vert', 'vert', 'hori', 'hori', 'vert', 'vert']","yes",109,"circles","yes",0,NA,2,"legacy",NA,1024,2,48000,-16,"experiment",20,"even","green","no",5,"circle",298524.9365,298535.8097,298535.8508,NA,308700.9528,NA,NA,59896.7462000001,3659.53259999969,NA,59896.7685999996,479181.95,482397.8219,NA,NA,NA,NA,3659.61169999991,309027.5146,NA,NA,479181.9643,309369.6163,479181.9017,"New experiment",19,"[0]","dist_present",56,64,"yes","yes",1680,NA,NA,NA,NA,"NR","NR","lp",NA,NA,NA,NA,NA,NA,"practice",4,"NR","in",1
"51",1590.05310000019,78436.339300001,78436.339300001,24,24,"n",1,"['1', '8', '7', 'space']","n","#000000","no",475998.5439,1,"neutral","psycho","psycho","psycho",0,"uniform",1,0,0,0,NA,0,0,NA,0,0,0,0,50,50,NA,NA,NA,NA,0,0,0,NA,50,0,50,73.2296414732588,"Mon Oct  4 11:01:09 2021","The main experiment item","yes","red","no","1","circle",NA,"pinging_target_expectations 4.0.osexp","C:\Users\etp-cp-ping\Desktop\LocalPC-EXP",75,"no","mono","no",18,"no","white","no","yes",1050,NA,100,"psycho",50,0,50,"C:/Users/etp-cp-ping/Desktop/LocalPC-EXP/subject-20.csv","psycho",17,51,51,"Lentiform Loewenfeld","3.3.8","['hori', 'vert', 'hori', 'hori', 'vert', 'vert', 'vert', 'hori']","no",209,"None","yes",0,NA,2,"legacy",NA,1024,2,48000,-16,"experiment",20,"even","green","no",2,"diamond",298524.9365,298535.8097,298535.8508,NA,308700.9528,NA,NA,59896.7462000001,3659.53259999969,NA,59896.7685999996,482428.5761,485757.808,NA,NA,NA,NA,3659.61169999991,309027.5146,NA,NA,482428.5907,309369.6163,482428.5279,"New experiment",19,"[0]","dist_present",56,32,"yes","yes",1680,NA,NA,NA,NA,"NR","NR","lp",NA,NA,NA,NA,NA,NA,"practice",5,"NR","in",0
"52",1734.58089999988,80170.9202000009,80170.9202000009,24,24,"n",1,"['1', '8', '7', 'space']","n","#000000","no",486105.7359,1,"neutral","psycho","psycho","psycho",0,"uniform",0,0,0,0,NA,0,0,NA,0,0,0,0,51,51,NA,NA,NA,NA,0,0,0,NA,51,0,51,73.2296414732588,"Mon Oct  4 11:01:09 2021","The main experiment item","yes","green","no","5","diamond",NA,"pinging_target_expectations 4.0.osexp","C:\Users\etp-cp-ping\Desktop\LocalPC-EXP",75,"no","mono","no",18,"no","white","no","yes",1050,NA,100,"psycho",51,0,51,"C:/Users/etp-cp-ping/Desktop/LocalPC-EXP/subject-20.csv","psycho",18,52,52,"Lentiform Loewenfeld","3.3.8","['hori', 'hori', 'vert', 'vert', 'vert', 'vert', 'hori', 'hori']","no",209,"None","yes",0,NA,2,"legacy",NA,1024,2,48000,-16,"experiment",20,"even","red","no",1,"circle",298524.9365,298535.8097,298535.8508,NA,308700.9528,NA,NA,59896.7462000001,3659.53259999969,NA,59896.7685999996,485788.5537,489293.9282,NA,NA,NA,NA,3659.61169999991,309027.5146,NA,NA,485788.5678,309369.6163,485788.5047,"New experiment",19,"[0]","dist_present",56,26,"yes","yes",1680,NA,NA,NA,NA,"NR","NR","lp",NA,NA,NA,NA,NA,NA,"practice",2,"NR","in",1
"53",1658.62449999986,81829.5447000007,81829.5447000007,25,25,"n",1,"['1', '8', '7', 'space']","n","#000000","no",486105.7359,1,"neutral","psycho","psycho","psycho",0,"uniform",1,0,0,0,NA,0,0,NA,0,0,0,0,52,52,NA,NA,NA,NA,0,0,0,NA,52,0,52,73.2296414732588,"Mon Oct  4 11:01:09 2021","The main experiment item","yes","red","no","None","circle",NA,"pinging_target_expectations 4.0.osexp","C:\Users\etp-cp-ping\Desktop\LocalPC-EXP",75,"no","mono","no",18,"no","white","no","yes",1050,NA,100,"psycho",52,0,52,"C:/Users/etp-cp-ping/Desktop/LocalPC-EXP/subject-20.csv","psycho",18,53,53,"Lentiform Loewenfeld","3.3.8","['vert', 'hori', 'hori', 'vert', 'vert', 'hori', 'vert', 'hori']","no",209,"None","yes",0,NA,2,"legacy",NA,1024,2,48000,-16,"experiment",20,"even","green","no",0,"diamond",298524.9365,298535.8097,298535.8508,NA,308700.9528,NA,NA,59896.7462000001,3659.53259999969,NA,59896.7685999996,489324.7912,492845.8619,NA,NA,NA,NA,3659.61169999991,309027.5146,NA,NA,489324.8056,309369.6163,489324.7414,"New experiment",19,"[0]","dist_absent",56,19,"yes","yes",1680,NA,NA,NA,NA,"NR","NR","lp",NA,NA,NA,NA,NA,NA,"practice",1,"NR","in",0
"54",1132.20009999984,82961.7448000006,82961.7448000006,26,26,"n",1,"['1', '8', '7', 'space']","n","#000000","no",493174.3703,1,"neutral","psycho","psycho","psycho",0,"uniform",1,0,0,0,NA,0,0,NA,0,0,0,0,53,53,NA,NA,NA,NA,0,0,0,NA,53,0,53,73.2296414732588,"Mon Oct  4 11:01:09 2021","The main experiment item","yes","red","no","1","diamond",NA,"pinging_target_expectations 4.0.osexp","C:\Users\etp-cp-ping\Desktop\LocalPC-EXP",75,"no","mono","no",18,"no","white","no","yes",1050,NA,100,"psycho",53,0,53,"C:/Users/etp-cp-ping/Desktop/LocalPC-EXP/subject-20.csv","psycho",19,54,54,"Lentiform Loewenfeld","3.3.8","['vert', 'hori', 'vert', 'vert', 'vert', 'hori', 'hori', 'hori']","yes",109,"diamond","yes",0,NA,2,"legacy",NA,1024,2,48000,-16,"experiment",20,"even","green","no",3,"circle",298524.9365,298535.8097,298535.8508,NA,308700.9528,NA,NA,59896.7462000001,3659.53259999969,NA,59896.7685999996,492876.5281,495853.8284,NA,NA,NA,NA,3659.61169999991,309027.5146,NA,NA,492876.5425,309369.6163,492876.4785,"New experiment",19,"[0, 87.27394853153663, 84.47320945267539, 75.09579042301979]","dist_present",56,42,"yes","yes",1680,NA,NA,NA,NA,"NR","NR","lp",NA,NA,NA,NA,NA,NA,"practice",0,"NR","in",1
"55",1706.00770000007,84667.7525000006,84667.7525000006,27,27,"n",1,"['1', '8', '7', 'space']","n","#000000","no",496370.9648,1,"neutral","psycho","psycho","psycho",0,"uniform",1,0,0,0,NA,0,0,NA,0,0,0,0,54,54,NA,NA,NA,NA,0,0,0,NA,54,0,54,73.2296414732588,"Mon Oct  4 11:01:09 2021","The main experiment item","yes","green","no","6","circle",NA,"pinging_target_expectations 4.0.osexp","C:\Users\etp-cp-ping\Desktop\LocalPC-EXP",75,"no","mono","no",18,"no","white","no","yes",1050,NA,100,"psycho",54,0,54,"C:/Users/etp-cp-ping/Desktop/LocalPC-EXP/subject-20.csv","psycho",20,55,55,"Lentiform Loewenfeld","3.3.8","['hori', 'vert', 'hori', 'hori', 'vert', 'vert', 'vert', 'hori']","no",209,"None","yes",0,NA,2,"legacy",NA,1024,2,48000,-16,"experiment",20,"even","red","no",2,"diamond",298524.9365,298535.8097,298535.8508,NA,308700.9528,NA,NA,59896.7462000001,3659.53259999969,NA,59896.7685999996,495884.5574,499517.9654,NA,NA,NA,NA,3659.61169999991,309027.5146,NA,NA,495884.5719,309369.6163,495884.5083,"New experiment",19,"[0]","dist_present",56,37,"yes","yes",1680,NA,NA,NA,NA,"NR","NR","lp",NA,NA,NA,NA,NA,NA,"practice",3,"NR","in",1
"56",1277.18050000025,85944.9330000009,85944.9330000009,28,28,"n",1,"['1', '8', '7', 'space']","n","#000000","no",499811.0308,1,"neutral","psycho","psycho","psycho",0,"uniform",1,0,0,0,NA,0,0,NA,0,0,0,0,55,55,NA,NA,NA,NA,0,0,0,NA,55,0,55,73.2296414732588,"Mon Oct  4 11:01:09 2021","The main experiment item","yes","red","no","2","diamond",NA,"pinging_target_expectations 4.0.osexp","C:\Users\etp-cp-ping\Desktop\LocalPC-EXP",75,"no","mono","no",18,"no","white","no","yes",1050,NA,100,"psycho",55,0,55,"C:/Users/etp-cp-ping/Desktop/LocalPC-EXP/subject-20.csv","psycho",21,56,56,"Lentiform Loewenfeld","3.3.8","['vert', 'hori', 'vert', 'hori', 'hori', 'vert', 'vert', 'hori']","yes",109,"circles","yes",0,NA,2,"legacy",NA,1024,2,48000,-16,"experiment",20,"even","green","no",5,"circle",298524.9365,298535.8097,298535.8508,NA,308700.9528,NA,NA,59896.7462000001,3659.53259999969,NA,59896.7685999996,499548.6281,502605.8136,NA,NA,NA,NA,3659.61169999991,309027.5146,NA,NA,499548.6428,309369.6163,499548.5788,"New experiment",19,"[0]","dist_present",56,63,"yes","yes",1680,NA,NA,NA,NA,"NR","NR","lp",NA,NA,NA,NA,NA,NA,"practice",2,"NR","in",1
"57",1843.85939999984,1843.85939999984,87788.7924000007,1,29,"n",1,"['1', '8', '7', 'space']","n","#000000","no",693884.5236,2,"bias","psycho","psycho","psycho",0,"uniform",1,0,1,1,NA,1,0,NA,0,0,1,0,56,56,NA,NA,NA,NA,0,1,1,NA,56,1,56,73.2296414732588,"Mon Oct  4 11:01:09 2021","The main experiment item","yes","red","no","None","circle",NA,"pinging_target_expectations 4.0.osexp","C:\Users\etp-cp-ping\Desktop\LocalPC-EXP",75,"no","mono","no",18,"no","white","no","yes",1050,NA,6,"psycho",0,1,0,"C:/Users/etp-cp-ping/Desktop/LocalPC-EXP/subject-20.csv","psycho",2,57,1,"Lentiform Loewenfeld","3.3.8","['vert', 'hori', 'hori', 'hori', 'hori', 'vert', 'vert', 'vert']","no",206,"None","no",0,NA,2,"legacy",NA,1024,2,48000,-16,"experiment",20,"even","green","yes",6,"diamond",298524.9365,635195.3551,635195.4045,NA,646954.0874,NA,NA,59896.7462000001,3659.53259999969,503142.3059,59896.7685999996,692366.0243,695981.9966,NA,NA,NA,NA,3659.61169999991,692012.2597,502635.8496,NA,692366.0402,692361.6046,692365.9802,"New experiment",19,"[0]","dist_absent",56,79,"yes","yes",1680,NA,NA,"no hp","True","NR","NR","lp",NA,"Right",NA,"Right",0,NA,"first",999,"NR","in",0
"58",1379.90339999984,3223.76279999968,89168.6958000006,1,29,"n",1,"['1', '8', '7', 'space']","n","#000000","no",697322.1032,2,"bias","psycho","psycho","psycho",0,"uniform",0,0,1,1,NA,1,0,NA,0,0,1,0,57,57,NA,NA,NA,NA,0,1,1,NA,57,1,57,73.2296414732588,"Mon Oct  4 11:01:09 2021","The main experiment item","yes","green","no","None","diamond",NA,"pinging_target_expectations 4.0.osexp","C:\Users\etp-cp-ping\Desktop\LocalPC-EXP",75,"no","mono","no",18,"no","white","no","yes",1050,NA,6,"psycho",1,1,1,"C:/Users/etp-cp-ping/Desktop/LocalPC-EXP/subject-20.csv","psycho",3,58,2,"Lentiform Loewenfeld","3.3.8","['vert', 'vert', 'hori', 'hori', 'hori', 'vert', 'vert', 'hori']","yes",106,"diamond","no",0,NA,2,"legacy",NA,1024,2,48000,-16,"experiment",20,"even","red","no",1,"circle",298524.9365,635195.3551,635195.4045,NA,646954.0874,NA,NA,59896.7462000001,3659.53259999969,503142.3059,59896.7685999996,696014.8069,699357.9842,NA,NA,NA,NA,3659.61169999991,692012.2597,502635.8496,NA,696014.821,692361.6046,696014.7597,"New experiment",19,"[0, 602.8309120884055, 626.0568754426894, 655.8588095478508, 677.3775996155601, 783.3431343138592, 783.4163342025191, 808.4104882542863, 815.7672800604886, 853.2484365901046, 879.2570790847273, 914.1057343354335]","dist_absent",56,29,"yes","no",1680,NA,NA,"no hp","True","NR","R","hp",NA,"Left",NA,NA,-3,NA,"first",6,"NR","in",1
"59",2000.30619999964,5224.06899999932,91169.0020000002,1,29,"n",1,"['1', '8', '7', 'space']","n","#000000","no",697322.1032,2,"bias","psycho","psycho","psycho",0,"uniform",0,0,1,1,NA,1,0,NA,0,0,1,0,58,58,NA,NA,NA,NA,0,1,1,NA,58,1,58,73.2296414732588,"Mon Oct  4 11:01:09 2021","The main experiment item","yes","green","no","None","diamond",NA,"pinging_target_expectations 4.0.osexp","C:\Users\etp-cp-ping\Desktop\LocalPC-EXP",75,"no","mono","no",18,"no","white","no","yes",1050,NA,6,"psycho",2,1,2,"C:/Users/etp-cp-ping/Desktop/LocalPC-EXP/subject-20.csv","psycho",3,59,3,"Lentiform Loewenfeld","3.3.8","['hori', 'vert', 'vert', 'hori', 'vert', 'hori', 'vert', 'hori']","yes",106,"circles","no",0,NA,2,"legacy",NA,1024,2,48000,-16,"experiment",20,"even","red","yes",6,"circle",298524.9365,635195.3551,635195.4045,NA,646954.0874,NA,NA,59896.7462000001,3659.53259999969,503142.3059,59896.7685999996,699388.9118,703384.389,NA,NA,NA,NA,3659.61169999991,692012.2597,502635.8496,NA,699388.9262,692361.6046,699388.8626,"New experiment",19,"[0]","dist_absent",56,79,"yes","yes",1680,3.19571281397204,2.92942189952914,"more away","False","NR","R","lp",NA,"Right",NA,"Right",0,NA,"first",1,"NR","ex",0
"60",1556.90319999994,6780.97219999926,92725.9052000002,2,30,"n",1,"['1', '8', '7', 'space']","n","#000000","no",705040.2546,2,"bias","psycho","psycho","psycho",0,"uniform",1,0,1,1,NA,1,0,NA,0,0,1,0,59,59,NA,NA,NA,NA,0,1,1,NA,59,1,59,73.2296414732588,"Mon Oct  4 11:01:09 2021","The main experiment item","yes","red","yes","6","diamond",NA,"pinging_target_expectations 4.0.osexp","C:\Users\etp-cp-ping\Desktop\LocalPC-EXP",75,"no","mono","no",18,"no","white","no","yes",1050,NA,6,"psycho",3,1,3,"C:/Users/etp-cp-ping/Desktop/LocalPC-EXP/subject-20.csv","psycho",5,60,4,"Lentiform Loewenfeld","3.3.8","['hori', 'vert', 'vert', 'vert', 'hori', 'hori', 'hori', 'vert']","no",206,"None","no",0,NA,2,"legacy",NA,1024,2,48000,-16,"experiment",20,"even","green","no",3,"circle",298524.9365,635195.3551,635195.4045,NA,646954.0874,NA,NA,59896.7462000001,3659.53259999969,503142.3059,59896.7685999996,703414.9847,706733.9694,NA,NA,NA,NA,3659.61169999991,692012.2597,502635.8496,NA,703414.9992,692361.6046,703414.9362,"New experiment",19,"[0, 79.81226798004134, 90.91410429824822, 103.39212912849293, 116.47595233843455, 124.93124519267076, 141.90926878257952, 152.30926202575245, 163.04582392899164, 170.40367144001027, 181.51433314536837, 198.35778006202216, 214.67766534970517, 228.58453414010106, 243.63191444539714, 260.9816247030005, 283.8332515923274, 296.97177752356964, 319.5700042895183, 331.7351262002243, 350.4858780018278, 360.2436519015314, 378.1047698617253, 397.6697280807737, 409.0469774914887, 431.1392614103856, 449.2435257787281, 467.3245381426018, 485.5126387140452, 505.1672990208293, 511.4782399395335, 535.8478078532683, 549.1029878622935, 569.7892107803384, 617.928189226723, 618.3174117256178]","dist_present",56,47,"yes","no",1680,NA,NA,"no hp","True","NR","NR","hp",NA,NA,NA,NA,3,0,"first",6,"NR","in",0
"61",1105.66899999999,7886.64119999926,93831.5742000001,3,31,"n",1,"['1', '8', '7', 'space']","n","#000000","no",705040.2546,2,"bias","psycho","psycho","psycho",0,"uniform",1,0,1,1,NA,1,0,NA,0,0,1,0,60,60,NA,NA,NA,NA,0,1,1,NA,60,1,60,73.2296414732588,"Mon Oct  4 11:01:09 2021","The main experiment item","yes","green","no","4","diamond",NA,"pinging_target_expectations 4.0.osexp","C:\Users\etp-cp-ping\Desktop\LocalPC-EXP",75,"no","mono","no",18,"no","white","no","yes",1050,NA,6,"psycho",4,1,4,"C:/Users/etp-cp-ping/Desktop/LocalPC-EXP/subject-20.csv","psycho",5,61,5,"Lentiform Loewenfeld","3.3.8","['vert', 'vert', 'hori', 'hori', 'hori', 'hori', 'vert', 'vert']","yes",106,"circles","no",0,NA,2,"legacy",NA,1024,2,48000,-16,"experiment",20,"even","red","no",2,"circle",298524.9365,635195.3551,635195.4045,NA,646954.0874,NA,NA,59896.7462000001,3659.53259999969,503142.3059,59896.7685999996,706764.831,709901.9351,NA,NA,NA,NA,3659.61169999991,692012.2597,502635.8496,NA,706764.8453,692361.6046,706764.7821,"New experiment",19,"[0]","dist_present",56,35,"yes","yes",1680,-4.05503718602793,-4.98614060047087,"more away","False","NR","NR","lp",NA,"Left",NA,"Left",4,2,"first",3,"NR","in",1
"62",1339.06350000005,9225.7046999993,95170.6377000002,4,32,"n",1,"['1', '8', '7', 'space']","n","#000000","no",705040.2546,2,"bias","psycho","psycho","psycho",0,"uniform",1,0,1,1,NA,1,0,NA,0,0,1,0,61,61,NA,NA,NA,NA,0,1,1,NA,61,1,61,73.2296414732588,"Mon Oct  4 11:01:09 2021","The main experiment item","yes","red","no","1","circle",NA,"pinging_target_expectations 4.0.osexp","C:\Users\etp-cp-ping\Desktop\LocalPC-EXP",75,"no","mono","no",18,"no","white","no","yes",1050,NA,6,"psycho",5,1,5,"C:/Users/etp-cp-ping/Desktop/LocalPC-EXP/subject-20.csv","psycho",5,62,6,"Lentiform Loewenfeld","3.3.8","['vert', 'vert', 'hori', 'hori', 'hori', 'vert', 'vert', 'hori']","yes",106,"circles","no",0,NA,2,"legacy",NA,1024,2,48000,-16,"experiment",20,"even","green","no",0,"diamond",298524.9365,635195.3551,635195.4045,NA,646954.0874,NA,NA,59896.7462000001,3659.53259999969,503142.3059,59896.7685999996,709932.7173,713101.9436,NA,NA,NA,NA,3659.61169999991,692012.2597,502635.8496,NA,709932.7317,692361.6046,709932.6673,"New experiment",19,"[0]","dist_present",56,12,"yes","yes",1680,-21.1299121860279,-24.9747656004708,"more toward","False","NR","NR","lp","Left",NA,NA,NA,-2,-3,"first",2,"NR","in",1
"63",1332.96100000001,10558.6656999993,96503.5987000002,4,32,"n",1,"['1', '8', '7', 'space']","n","#000000","no",705040.2546,2,"bias","psycho","psycho","psycho",0,"uniform",0,0,1,1,NA,1,0,NA,0,0,1,0,62,62,NA,NA,NA,NA,0,1,1,NA,62,1,62,73.2296414732588,"Mon Oct  4 11:01:09 2021","The main experiment item","yes","red","no","None","circle",NA,"pinging_target_expectations 4.0.osexp","C:\Users\etp-cp-ping\Desktop\LocalPC-EXP",75,"no","mono","no",18,"no","white","no","yes",1050,NA,6,"psycho",6,1,6,"C:/Users/etp-cp-ping/Desktop/LocalPC-EXP/subject-20.csv","psycho",5,63,7,"Lentiform Loewenfeld","3.3.8","['vert', 'hori', 'hori', 'vert', 'hori', 'vert', 'hori', 'vert']","no",206,"None","no",0,NA,2,"legacy",NA,1024,2,48000,-16,"experiment",20,"even","green","no",3,"diamond",298524.9365,635195.3551,635195.4045,NA,646954.0874,NA,NA,59896.7462000001,3659.53259999969,503142.3059,59896.7685999996,713132.8479,716461.9525,NA,NA,NA,NA,3659.61169999991,692012.2597,502635.8496,NA,713132.862,692361.6046,713132.7982,"New experiment",19,"[0]","dist_absent",56,49,"yes","yes",1680,-9.76053718602794,-2.26251560047085,"more away","False","NR","NR","lp",NA,"Left",NA,NA,3,NA,"first",0,"NR","in",1
"64",1648.7326000001,12207.3982999994,98152.3313000003,5,33,"n",1,"['1', '8', '7', 'space']","n","#000000","no",717235.0284,2,"bias","psycho","psycho","psycho",0,"uniform",1,0,1,1,NA,1,0,NA,0,0,1,0,63,63,NA,NA,NA,NA,0,1,1,NA,63,1,63,73.2296414732588,"Mon Oct  4 11:01:09 2021","The main experiment item","yes","red","no","0","diamond",NA,"pinging_target_expectations 4.0.osexp","C:\Users\etp-cp-ping\Desktop\LocalPC-EXP",75,"no","mono","no",18,"no","white","no","yes",1050,NA,6,"psycho",7,1,7,"C:/Users/etp-cp-ping/Desktop/LocalPC-EXP/subject-20.csv","psycho",6,64,8,"Lentiform Loewenfeld","3.3.8","['vert', 'vert', 'hori', 'vert', 'vert', 'hori', 'hori', 'hori']","no",206,"None","no",0,NA,2,"legacy",NA,1024,2,48000,-16,"experiment",20,"even","green","no",4,"circle",298524.9365,635195.3551,635195.4045,NA,646954.0874,NA,NA,59896.7462000001,3659.53259999969,503142.3059,59896.7685999996,716492.8001,720029.9732,NA,NA,NA,NA,3659.61169999991,692012.2597,502635.8496,NA,716492.8147,692361.6046,716492.7489,"New experiment",19,"[0]","dist_present",56,51,"yes","no",1680,5.00165031397219,3.62810939952915,"more away","False","NR","NR","lp",NA,NA,NA,NA,2,-2,"first",3,"NR","in",0
"65",1623.90630000026,13831.3045999997,99776.2376000006,6,34,"n",1,"['1', '8', '7', 'space']","n","#000000","no",717235.0284,2,"bias","psycho","psycho","psycho",0,"uniform",1,0,1,1,NA,1,0,NA,0,0,1,0,64,64,NA,NA,NA,NA,0,1,1,NA,64,1,64,73.2296414732588,"Mon Oct  4 11:01:09 2021","The main experiment item","yes","green","yes","6","circle",NA,"pinging_target_expectations 4.0.osexp","C:\Users\etp-cp-ping\Desktop\LocalPC-EXP",75,"no","mono","no",18,"no","white","no","yes",1050,NA,6,"psycho",8,1,8,"C:/Users/etp-cp-ping/Desktop/LocalPC-EXP/subject-20.csv","psycho",6,65,9,"Lentiform Loewenfeld","3.3.8","['hori', 'vert', 'hori', 'vert', 'hori', 'vert', 'vert', 'hori']","yes",106,"diamond","no",0,NA,2,"legacy",NA,1024,2,48000,-16,"experiment",20,"even","red","no",1,"diamond",298524.9365,635195.3551,635195.4045,NA,646954.0874,NA,NA,59896.7462000001,3659.53259999969,503142.3059,59896.7685999996,720060.7059,723549.9507,NA,NA,NA,NA,3659.61169999991,692012.2597,502635.8496,NA,720060.7203,692361.6046,720060.6565,"New experiment",19,"[0]","dist_present",56,27,"yes","yes",1680,-8.01791218602799,11.3719843995291,"more away","False","NR","NR","lp",NA,NA,NA,NA,-3,0,"first",4,"NR","in",1
"66",2000.03319999995,15831.3377999996,101776.270800001,6,34,"n",1,"['1', '8', '7', 'space']","n","#000000","no",723826.6531,2,"bias","psycho","psycho","psycho",0,"uniform",0,0,1,1,NA,1,0,NA,0,0,1,0,65,65,NA,NA,NA,NA,0,1,1,NA,65,1,65,73.2296414732588,"Mon Oct  4 11:01:09 2021","The main experiment item","yes","red","no","None","diamond",NA,"pinging_target_expectations 4.0.osexp","C:\Users\etp-cp-ping\Desktop\LocalPC-EXP",75,"no","mono","no",18,"no","white","no","yes",1050,NA,6,"psycho",9,1,9,"C:/Users/etp-cp-ping/Desktop/LocalPC-EXP/subject-20.csv","psycho",7,66,10,"Lentiform Loewenfeld","3.3.8","['hori', 'vert', 'vert', 'vert', 'hori', 'vert', 'hori', 'hori']","no",206,"None","no",0,NA,2,"legacy",NA,1024,2,48000,-16,"experiment",20,"even","green","no",4,"circle",298524.9365,635195.3551,635195.4045,NA,646954.0874,NA,NA,59896.7462000001,3659.53259999969,503142.3059,59896.7685999996,723580.9112,727418.6321,NA,NA,NA,NA,3659.61169999991,692012.2597,502635.8496,NA,723580.9256,692361.6046,723580.8613,"New experiment",19,"[0]","dist_absent",56,59,"yes","no",1680,-14.533537186028,6.72217189952923,"more toward","False","NR","NR","lp",NA,NA,NA,NA,2,NA,"first",1,"NR","in",1
"67",2000.78929999971,17832.1270999993,103777.0601,6,34,"n",1,"['1', '8', '7', 'space']","n","#000000","no",723826.6531,2,"bias","psycho","psycho","psycho",0,"uniform",0,0,1,1,NA,1,0,NA,0,0,1,0,66,66,NA,NA,NA,NA,0,1,1,NA,66,1,66,73.2296414732588,"Mon Oct  4 11:01:09 2021","The main experiment item","yes","red","no","5","diamond",NA,"pinging_target_expectations 4.0.osexp","C:\Users\etp-cp-ping\Desktop\LocalPC-EXP",75,"no","mono","no",18,"no","white","no","yes",1050,NA,6,"psycho",10,1,10,"C:/Users/etp-cp-ping/Desktop/LocalPC-EXP/subject-20.csv","psycho",7,67,11,"Lentiform Loewenfeld","3.3.8","['hori', 'vert', 'vert', 'hori', 'hori', 'hori', 'vert', 'vert']","no",206,"None","no",0,NA,2,"legacy",NA,1024,2,48000,-16,"experiment",20,"even","green","yes",6,"circle",298524.9365,635195.3551,635195.4045,NA,646954.0874,NA,NA,59896.7462000001,3659.53259999969,503142.3059,59896.7685999996,727449.52,731330.1134,NA,NA,NA,NA,3659.61169999991,692012.2597,502635.8496,NA,727449.5361,692361.6046,727449.3465,"New experiment",19,"[0]","dist_present",56,76,"yes","yes",1680,-21.8047246860281,0.259546899529184,"more toward","False","NR","NR","lp",NA,NA,NA,NA,0,1,"first",4,"NR","ex",0
"68",2000.74619999982,19832.8732999992,105777.8063,6,34,"n",1,"['1', '8', '7', 'space']","n","#000000","no",731796.3196,2,"bias","psycho","psycho","psycho",0,"uniform",0,0,1,1,NA,1,0,NA,0,0,1,0,67,67,NA,NA,NA,NA,0,1,1,NA,67,1,67,73.2296414732588,"Mon Oct  4 11:01:09 2021","The main experiment item","yes","green","no","0","diamond",NA,"pinging_target_expectations 4.0.osexp","C:\Users\etp-cp-ping\Desktop\LocalPC-EXP",75,"no","mono","no",18,"no","white","no","yes",1050,NA,6,"psycho",11,1,11,"C:/Users/etp-cp-ping/Desktop/LocalPC-EXP/subject-20.csv","psycho",8,68,12,"Lentiform Loewenfeld","3.3.8","['vert', 'vert', 'hori', 'hori', 'hori', 'vert', 'hori', 'vert']","no",206,"None","no",0,NA,2,"legacy",NA,1024,2,48000,-16,"experiment",20,"even","red","yes",6,"circle",298524.9365,635195.3551,635195.4045,NA,646954.0874,NA,NA,59896.7462000001,3659.53259999969,503142.3059,59896.7685999996,731361.8032,735309.2979,NA,NA,NA,NA,3659.61169999991,692012.2597,502635.8496,NA,731361.8175,692361.6046,731361.7553,"New experiment",19,"[0]","dist_present",56,71,"yes","yes",1680,-6.88797468602788,-3.17895310047086,"more away","False","R","NR","hp",NA,"Right",NA,"Right",0,-2,"first",6,"NR","ex",0
"69",1431.05639999977,21263.9296999989,107208.8627,6,34,"n",1,"['1', '8', '7', 'space']","n","#000000","no",731796.3196,2,"bias","psycho","psycho","psycho",0,"uniform",0,0,1,1,NA,1,0,NA,0,0,1,0,68,68,NA,NA,NA,NA,0,1,1,NA,68,1,68,73.2296414732588,"Mon Oct  4 11:01:09 2021","The main experiment item","yes","green","no","None","diamond",NA,"pinging_target_expectations 4.0.osexp","C:\Users\etp-cp-ping\Desktop\LocalPC-EXP",75,"no","mono","no",18,"no","white","no","yes",1050,NA,6,"psycho",12,1,12,"C:/Users/etp-cp-ping/Desktop/LocalPC-EXP/subject-20.csv","psycho",8,69,13,"Lentiform Loewenfeld","3.3.8","['hori', 'vert', 'hori', 'vert', 'vert', 'vert', 'hori', 'hori']","yes",106,"diamond","no",0,NA,2,"legacy",NA,1024,2,48000,-16,"experiment",20,"even","red","no",5,"circle",298524.9365,635195.3551,635195.4045,NA,646954.0874,NA,NA,59896.7462000001,3659.53259999969,503142.3059,59896.7685999996,735341.6075,738749.956,NA,NA,NA,NA,3659.61169999991,692012.2597,502635.8496,NA,735341.6225,692361.6046,735341.5568,"New experiment",19,"[0]","dist_absent",56,69,"yes","yes",1680,-18.9951621860279,-7.41570310047083,"more toward","False","NR","NR","hp",NA,"Right",NA,NA,1,NA,"first",6,"R","in",0
"70",1444.07449999976,22708.0041999987,108652.9372,7,35,"n",1,"['1', '8', '7', 'space']","n","#000000","no",739732.9724,2,"bias","psycho","psycho","psycho",0,"uniform",1,0,1,1,NA,1,0,NA,0,0,1,0,69,69,NA,NA,NA,NA,0,1,1,NA,69,1,69,73.2296414732588,"Mon Oct  4 11:01:09 2021","The main experiment item","yes","red","no","None","circle",NA,"pinging_target_expectations 4.0.osexp","C:\Users\etp-cp-ping\Desktop\LocalPC-EXP",75,"no","mono","no",18,"no","white","no","yes",1050,NA,6,"psycho",13,1,13,"C:/Users/etp-cp-ping/Desktop/LocalPC-EXP/subject-20.csv","psycho",10,70,14,"Lentiform Loewenfeld","3.3.8","['vert', 'hori', 'hori', 'vert', 'vert', 'vert', 'hori', 'hori']","yes",106,"circles","no",0,NA,2,"legacy",NA,1024,2,48000,-16,"experiment",20,"even","green","yes",6,"diamond",298524.9365,635195.3551,635195.4045,NA,646954.0874,NA,NA,59896.7462000001,3659.53259999969,503142.3059,59896.7685999996,738780.8482,742030.1014,NA,NA,NA,NA,3659.61169999991,692012.2597,502635.8496,NA,738780.8628,692361.6046,738780.7995,"New experiment",19,"[0, 81.70612520488439, 92.78466978057209, 108.10013471766217, 116.15459149761026, 124.12647586924817, 138.06699242387154, 149.06310144663976, 160.8007819996531, 172.6020059727611, 187.69682185917773, 199.32508899051058, 209.57442726622347, 222.30341445010032, 237.98510903328128, 253.08434788820276, 267.07490605509287, 280.701735271749, 296.61622248687615, 313.59326847014023, 327.9432024053965, 342.1031896349392, 355.02662369906494, 378.0472716694296, 393.2017165991581, 411.294187836097, 434.50830694442567, 449.2308732874992, 479.23421540296056, 498.31700255377643, 508.18425655787627, 525.6604172074884, 550.033634531755, 577.1419580029684, 607.0070841352932, 666.5351826805377, 685.1827336315473, 685.4017632102498, 712.3486095983349, 730.8708937945187, 81.00617260431454, 90.78817221618473, 100.08816165031313, 113.39743096134546, 127.10981873194198, 134.68553489721018, 140.75405367338104, 143.5379389549458, 146.73712379959224, 149.0282192794444, 148.6033402859479, 147.03060905811415, 143.194424261733, 141.58831166448732, 137.27349941842132, 136.16989327301584, 128.13070320767184, 125.53028563779114, 124.42589738647771, 121.02216168192194, 118.2205818342941, 119.80905466649305, 117.43339909351596, 116.64003427303847, 114.09503679772972, 115.13807351037657, 115.43744268576323, 114.40073029611942, 115.17657957424599, 116.49088144136248]","dist_absent",56,79,"yes","yes",1680,NA,NA,"no hp","True","NR","R","lp",NA,"Right",NA,"Right",0,NA,"first",5,"NR","ex",0
"71",1923.40130000003,24631.4054999987,110576.3385,7,35,"n",1,"['1', '8', '7', 'space']","n","#000000","no",739732.9724,2,"bias","psycho","psycho","psycho",0,"uniform",0,0,1,1,NA,1,0,NA,0,0,1,0,70,70,NA,NA,NA,NA,0,1,1,NA,70,1,70,73.2296414732588,"Mon Oct  4 11:01:09 2021","The main experiment item","yes","green","no","0","diamond",NA,"pinging_target_expectations 4.0.osexp","C:\Users\etp-cp-ping\Desktop\LocalPC-EXP",75,"no","mono","no",18,"no","white","no","yes",1050,NA,6,"psycho",14,1,14,"C:/Users/etp-cp-ping/Desktop/LocalPC-EXP/subject-20.csv","psycho",10,71,15,"Lentiform Loewenfeld","3.3.8","['vert', 'vert', 'hori', 'vert', 'hori', 'vert', 'hori', 'hori']","yes",106,"diamond","no",0,NA,2,"legacy",NA,1024,2,48000,-16,"experiment",20,"even","red","yes",6,"circle",298524.9365,635195.3551,635195.4045,NA,646954.0874,NA,NA,59896.7462000001,3659.53259999969,503142.3059,59896.7685999996,742061.1351,745918.0207,NA,NA,NA,NA,3659.61169999991,692012.2597,502635.8496,NA,742061.1513,692361.6046,742061.0847,"New experiment",19,"[0]","dist_present",56,71,"yes","yes",1680,-17.904662186028,-1.02145310047086,"more toward","False","R","NR","hp",NA,"Right",NA,"Right",0,-2,"first",6,"NR","ex",1
"72",1749.26229999983,26380.6677999985,112325.600799999,8,36,"n",1,"['1', '8', '7', 'space']","n","#000000","no",739732.9724,2,"bias","psycho","psycho","psycho",0,"uniform",1,0,1,1,NA,1,0,NA,0,0,1,0,71,71,NA,NA,NA,NA,0,1,1,NA,71,1,71,73.2296414732588,"Mon Oct  4 11:01:09 2021","The main experiment item","yes","red","no","4","circle",NA,"pinging_target_expectations 4.0.osexp","C:\Users\etp-cp-ping\Desktop\LocalPC-EXP",75,"no","mono","no",18,"no","white","no","yes",1050,NA,6,"psycho",15,1,15,"C:/Users/etp-cp-ping/Desktop/LocalPC-EXP/subject-20.csv","psycho",10,72,16,"Lentiform Loewenfeld","3.3.8","['vert', 'hori', 'hori', 'hori', 'vert', 'hori', 'vert', 'vert']","yes",106,"circles","no",0,NA,2,"legacy",NA,1024,2,48000,-16,"experiment",20,"even","green","yes",6,"diamond",298524.9365,635195.3551,635195.4045,NA,646954.0874,NA,NA,59896.7462000001,3659.53259999969,503142.3059,59896.7685999996,745948.9818,749694.064,NA,NA,NA,NA,3659.61169999991,692012.2597,502635.8496,NA,745948.9961,692361.6046,745948.9332,"New experiment",19,"[0]","dist_present",56,75,"yes","yes",1680,-21.464974686028,-20.2142031004708,"more toward","False","R","NR","hp",NA,"Right",NA,"Right",0,2,"first",6,"R","ex",0
"73",1202.47710000013,27583.1448999987,113528.0779,9,37,"n",1,"['1', '8', '7', 'space']","n","#000000","no",752542.0898,2,"bias","psycho","psycho","psycho",0,"uniform",1,0,1,1,NA,1,0,NA,0,0,1,0,72,72,NA,NA,NA,NA,0,1,1,NA,72,1,72,73.2296414732588,"Mon Oct  4 11:01:09 2021","The main experiment item","yes","green","no","4","circle",NA,"pinging_target_expectations 4.0.osexp","C:\Users\etp-cp-ping\Desktop\LocalPC-EXP",75,"no","mono","no",18,"no","white","no","yes",1050,NA,6,"psycho",16,1,16,"C:/Users/etp-cp-ping/Desktop/LocalPC-EXP/subject-20.csv","psycho",11,73,17,"Lentiform Loewenfeld","3.3.8","['hori', 'vert', 'vert', 'hori', 'vert', 'vert', 'hori', 'hori']","yes",106,"diamond","no",0,NA,2,"legacy",NA,1024,2,48000,-16,"experiment",20,"even","red","yes",6,"diamond",298524.9365,635195.3551,635195.4045,NA,646954.0874,NA,NA,59896.7462000001,3659.53259999969,503142.3059,59896.7685999996,749726.7778,752749.9543,NA,NA,NA,NA,3659.61169999991,692012.2597,502635.8496,NA,749726.7921,692361.6046,749726.7283,"New experiment",19,"[0, 93.69869435967492, 106.61052853692486, 121.51906329519218, 137.5285183138738, 147.58053190864536, 161.38909589386034, 191.05249040343915, 206.15538892972546, 231.88259072502177, 245.6166436486081, 270.5796982417311, 291.7501041708326, 314.11803204241477, 332.9588637522255, 356.44297248889524, 381.22721223521546, 401.6883379769688, 426.20146772829196, 447.9332666939724, 476.02796746164483, 503.7800416367892, 543.4838470860539, 557.3048608567606]","dist_present",56,75,"yes","no",1680,-21.919287186028,-23.9854531004708,"more toward","False","R","R","hp",NA,"Right",NA,"Right",0,2,"first",6,"R","ex",1
"74",1763.37169999979,29346.5165999985,115291.449599999,10,38,"n",1,"['1', '8', '7', 'space']","n","#000000","no",752542.0898,2,"bias","psycho","psycho","psycho",0,"uniform",1,0,1,1,NA,1,0,NA,0,0,1,0,73,73,NA,NA,NA,NA,0,1,1,NA,73,1,73,73.2296414732588,"Mon Oct  4 11:01:09 2021","The main experiment item","yes","red","no","3","diamond",NA,"pinging_target_expectations 4.0.osexp","C:\Users\etp-cp-ping\Desktop\LocalPC-EXP",75,"no","mono","no",18,"no","white","no","yes",1050,NA,6,"psycho",17,1,17,"C:/Users/etp-cp-ping/Desktop/LocalPC-EXP/subject-20.csv","psycho",11,74,18,"Lentiform Loewenfeld","3.3.8","['vert', 'hori', 'vert', 'hori', 'vert', 'hori', 'vert', 'hori']","yes",106,"diamond","no",0,NA,2,"legacy",NA,1024,2,48000,-16,"experiment",20,"even","green","yes",6,"circle",298524.9365,635195.3551,635195.4045,NA,646954.0874,NA,NA,59896.7462000001,3659.53259999969,503142.3059,59896.7685999996,752781.1657,756606.0979,NA,NA,NA,NA,3659.61169999991,692012.2597,502635.8496,NA,752781.18,692361.6046,752781.1157,"New experiment",19,"[0]","dist_present",56,74,"yes","yes",1680,-12.374349686028,-5.93176560047087,"more toward","False","R","NR","hp",NA,NA,NA,NA,0,3,"first",6,"R","ex",1
"75",1753.66339999984,31100.1799999983,117045.112999999,11,39,"n",1,"['1', '8', '7', 'space']","n","#000000","no",752542.0898,2,"bias","psycho","psycho","psycho",0,"uniform",1,0,1,1,NA,1,0,NA,0,0,1,0,74,74,NA,NA,NA,NA,0,1,1,NA,74,1,74,73.2296414732588,"Mon Oct  4 11:01:09 2021","The main experiment item","yes","green","no","None","circle",NA,"pinging_target_expectations 4.0.osexp","C:\Users\etp-cp-ping\Desktop\LocalPC-EXP",75,"no","mono","no",18,"no","white","no","yes",1050,NA,6,"psycho",18,1,18,"C:/Users/etp-cp-ping/Desktop/LocalPC-EXP/subject-20.csv","psycho",11,75,19,"Lentiform Loewenfeld","3.3.8","['vert', 'vert', 'hori', 'vert', 'vert', 'hori', 'hori', 'hori']","no",206,"None","no",0,NA,2,"legacy",NA,1024,2,48000,-16,"experiment",20,"even","red","yes",6,"diamond",298524.9365,635195.3551,635195.4045,NA,646954.0874,NA,NA,59896.7462000001,3659.53259999969,503142.3059,59896.7685999996,756637.0841,760382.008,NA,NA,NA,NA,3659.61169999991,692012.2597,502635.8496,NA,756637.0983,692361.6046,756637.0357,"New experiment",19,"[0, 89.05920581901363, 86.79524278393644, 86.83118422101245, 85.2580104002119, 81.58431221748455, 79.50974092127286, 79.76589021136593, 77.62161715153802, 76.88518887319394, 73.35020792697478]","dist_absent",56,79,"yes","yes",1680,-11.5957246860278,-5.80157810047085,"more toward","False","R","NR","hp",NA,"Right",NA,"Right",0,NA,"first",6,"R","ex",1
"76",1309.55220000027,32409.7321999986,118354.665199999,12,40,"n",1,"['1', '8', '7', 'space']","n","#000000","no",762165.9486,2,"bias","psycho","psycho","psycho",0,"uniform",1,0,1,1,NA,1,0,NA,0,0,1,0,75,75,NA,NA,NA,NA,0,1,1,NA,75,1,75,73.2296414732588,"Mon Oct  4 11:01:09 2021","The main experiment item","yes","red","no","5","diamond",NA,"pinging_target_expectations 4.0.osexp","C:\Users\etp-cp-ping\Desktop\LocalPC-EXP",75,"no","mono","no",18,"no","white","no","yes",1050,NA,6,"psycho",19,1,19,"C:/Users/etp-cp-ping/Desktop/LocalPC-EXP/subject-20.csv","psycho",12,76,20,"Lentiform Loewenfeld","3.3.8","['hori', 'vert', 'hori', 'hori', 'vert', 'vert', 'hori', 'vert']","yes",106,"diamond","no",0,NA,2,"legacy",NA,1024,2,48000,-16,"experiment",20,"even","green","no",4,"circle",298524.9365,635195.3551,635195.4045,NA,646954.0874,NA,NA,59896.7462000001,3659.53259999969,503142.3059,59896.7685999996,760412.9771,763677.9556,NA,NA,NA,NA,3659.61169999991,692012.2597,502635.8496,NA,760412.9917,692361.6046,760412.9272,"New experiment",19,"[0, 76.62112758491327, 80.84238930895002, 88.95896263835449, 95.25752935812899, 100.16007373746237, 106.2358452772796, 115.71192678371577, 122.87524932618837, 132.46983188584497, 138.611663248362, 149.48035835580833, 153.03268457695148, 163.68568467994191, 175.48585621759386, 181.6710192581135, 189.45995620416232, 194.76655189310438, 201.4720219773672, 213.53634437981358, 219.09206173130295, 231.18626595329974, 238.9522603156583, 247.1446712708943, 253.20220484444272, 265.8499333560759, 272.1598956025936, 279.10618312742827, 290.9611359978064, 299.23800983217455, 302.6610084688215, 316.48156949972457, 326.28266248736594, 337.1740378706003, 338.7862413407281, 352.9301151941249, 362.1310280574344, 372.011130171773, 378.540644264724, 385.64310964618403, 401.4454032821985, 409.35412812966484, 421.5710744703417, 430.0922453035106, 441.35435004618256, 455.8887064926266, 464.8597403499715, 473.3718645328938, 477.486791886207, 487.67432780493994, 508.2224930734799, 520.7457668914406, 541.3251995158364, 577.456311418172, 664.1111194407487, 677.9802725743574, 694.2506158917096, 701.1212254547768, 710.9782886135735, 732.0050354564471, 747.1925499587574, 760.0592197354663]","dist_present",56,56,"yes","no",1680,NA,NA,"no hp","True","NR","NR","hp","Right",NA,NA,NA,2,1,"first",6,"R","in",1
"77",1668.2030000001,34077.9351999987,120022.8682,13,41,"n",1,"['1', '8', '7', 'space']","n","#000000","no",764341.9717,2,"bias","psycho","psycho","psycho",0,"uniform",1,0,1,1,NA,1,0,NA,0,0,1,0,76,76,NA,NA,NA,NA,0,1,1,NA,76,1,76,73.2296414732588,"Mon Oct  4 11:01:09 2021","The main experiment item","yes","red","yes","6","circle",NA,"pinging_target_expectations 4.0.osexp","C:\Users\etp-cp-ping\Desktop\LocalPC-EXP",75,"no","mono","no",18,"no","white","no","yes",1050,NA,6,"psycho",20,1,20,"C:/Users/etp-cp-ping/Desktop/LocalPC-EXP/subject-20.csv","psycho",13,77,21,"Lentiform Loewenfeld","3.3.8","['vert', 'hori', 'hori', 'vert', 'vert', 'hori', 'vert', 'hori']","no",206,"None","no",0,NA,2,"legacy",NA,1024,2,48000,-16,"experiment",20,"even","green","no",2,"diamond",298524.9365,635195.3551,635195.4045,NA,646954.0874,NA,NA,59896.7462000001,3659.53259999969,503142.3059,59896.7685999996,763708.8465,767246.1266,NA,NA,NA,NA,3659.61169999991,692012.2597,502635.8496,NA,763708.8613,692361.6046,763708.7976,"New experiment",19,"[0, 73.2383535496577, 83.61935107392416, 91.11775627073598, 103.9731949286597, 111.16840722807083, 121.82170155688658, 132.61992108744082, 142.1430725062746, 149.23874767832413, 161.50003094463415, 173.90074321638633, 185.4815868293534, 200.39903930921173, 213.6051033181894, 232.51152987204364, 244.315157044982, 256.55339463612086, 273.66765018684663, 290.78627998907274, 299.79516286173316, 318.22206895257557, 328.1210274833943, 344.88146774216904, 356.60094403769455, 370.6290606596708, 389.15234761378673, 400.75737069455926, 417.0853527744946, 432.8225836314087, 448.10852480174935, 469.062291009073, 479.3930442232237, 495.93941370436556, 502.56959559158463, 525.4632503522065, 547.6498656234506, 567.2932068594076, 627.367538807996, 637.6799654795692, 693.9472124991589, 722.3503299894328, 804.3443986688319, 819.5393106908191]","dist_present",56,37,"yes","no",1680,-7.43903718602786,0.963671899529164,"more away","False","NR","NR","lp",NA,NA,NA,NA,4,0,"first",4,"NR","in",1
"78",1312.78209999984,35390.7172999985,121335.650299999,14,42,"n",1,"['1', '8', '7', 'space']","n","#000000","no",768079.5646,2,"bias","psycho","psycho","psycho",0,"uniform",1,0,1,1,NA,1,0,NA,0,0,1,0,77,77,NA,NA,NA,NA,0,1,1,NA,77,1,77,73.2296414732588,"Mon Oct  4 11:01:09 2021","The main experiment item","yes","red","no","3","circle",NA,"pinging_target_expectations 4.0.osexp","C:\Users\etp-cp-ping\Desktop\LocalPC-EXP",75,"no","mono","no",18,"no","white","no","yes",1050,NA,6,"psycho",21,1,21,"C:/Users/etp-cp-ping/Desktop/LocalPC-EXP/subject-20.csv","psycho",14,78,22,"Lentiform Loewenfeld","3.3.8","['hori', 'vert', 'vert', 'vert', 'hori', 'hori', 'vert', 'hori']","yes",106,"diamond","no",0,NA,2,"legacy",NA,1024,2,48000,-16,"experiment",20,"even","green","no",7,"diamond",298524.9365,635195.3551,635195.4045,NA,646954.0874,NA,NA,59896.7462000001,3659.53259999969,503142.3059,59896.7685999996,767277.0754,770318.1263,NA,NA,NA,NA,3659.61169999991,692012.2597,502635.8496,NA,767277.0897,692361.6046,767277.0255,"New experiment",19,"[0, 84.99530274820225, 92.72841761614583, 105.21869823376929, 118.80810192494873, 130.82240760490427, 142.31239187043204, 153.7377897447671, 166.6555590764798, 179.6707878097835, 187.74514706533103, 200.49699178137226, 218.18125110779232, 229.0973847072203, 253.25411230214993, 265.41192366514537, 276.5691688152548, 298.7173180508904, 310.3027741269162, 320.69251678176863, 332.37943824677006, 345.5231517263444, 360.1186891408928, 372.5018226740755, 392.2357617995501, 403.33602954545654, 418.7674044511607, 437.0886637742965, 458.66645945906663, 470.6373884621335, 484.4410580232962, 501.5805947086494, 523.1213027469807, 525.0311681294043, 538.065238814687, 557.2072704007935, 576.5500845546725, 594.7666613513898, 612.3417296670241]","dist_present",56,84,"yes","no",1680,NA,NA,"no hp","True","NR","NR","lp",NA,NA,NA,NA,-1,3,"first",2,"NR","in",1
"79",2000.0162999999,37390.7335999984,123335.666599999,14,42,"n",1,"['1', '8', '7', 'space']","n","#000000","no",771336.1313,2,"bias","psycho","psycho","psycho",0,"uniform",0,0,1,1,NA,1,0,NA,0,0,1,0,78,78,NA,NA,NA,NA,0,1,1,NA,78,1,78,73.2296414732588,"Mon Oct  4 11:01:09 2021","The main experiment item","yes","green","no","2","diamond",NA,"pinging_target_expectations 4.0.osexp","C:\Users\etp-cp-ping\Desktop\LocalPC-EXP",75,"no","mono","no",18,"no","white","no","yes",1050,NA,6,"psycho",22,1,22,"C:/Users/etp-cp-ping/Desktop/LocalPC-EXP/subject-20.csv","psycho",15,79,23,"Lentiform Loewenfeld","3.3.8","['vert', 'hori', 'vert', 'hori', 'vert', 'hori', 'hori', 'vert']","yes",106,"circles","no",0,NA,2,"legacy",NA,1024,2,48000,-16,"experiment",20,"even","red","no",1,"circle",298524.9365,635195.3551,635195.4045,NA,646954.0874,NA,NA,59896.7462000001,3659.53259999969,503142.3059,59896.7685999996,770349.2799,774097.9763,NA,NA,NA,NA,3659.61169999991,692012.2597,502635.8496,NA,770349.2941,692361.6046,770349.2303,"New experiment",19,"[0]","dist_present",56,23,"yes","yes",1680,NA,NA,"no hp","True","NR","NR","lp",NA,NA,NA,NA,-3,4,"first",7,"NR","in",1
"80",1115.43759999995,38506.1711999984,124451.104199999,15,43,"n",1,"['1', '8', '7', 'space']","n","#000000","no",774713.2176,2,"bias","psycho","psycho","psycho",0,"uniform",1,0,1,1,NA,1,0,NA,0,0,1,0,79,79,NA,NA,NA,NA,0,1,1,NA,79,1,79,73.2296414732588,"Mon Oct  4 11:01:09 2021","The main experiment item","yes","red","no","1","diamond",NA,"pinging_target_expectations 4.0.osexp","C:\Users\etp-cp-ping\Desktop\LocalPC-EXP",75,"no","mono","no",18,"no","white","no","yes",1050,NA,6,"psycho",23,1,23,"C:/Users/etp-cp-ping/Desktop/LocalPC-EXP/subject-20.csv","psycho",16,80,24,"Lentiform Loewenfeld","3.3.8","['vert', 'vert', 'hori', 'vert', 'hori', 'hori', 'hori', 'vert']","no",206,"None","no",0,NA,2,"legacy",NA,1024,2,48000,-16,"experiment",20,"even","green","yes",6,"circle",298524.9365,635195.3551,635195.4045,NA,646954.0874,NA,NA,59896.7462000001,3659.53259999969,503142.3059,59896.7685999996,774128.6793,777150.0184,NA,NA,NA,NA,3659.61169999991,692012.2597,502635.8496,NA,774128.6936,692361.6046,774128.6313,"New experiment",19,"[0]","dist_present",56,72,"yes","no",1680,0.00708781397201307,1.58292189952913,"more away","False","NR","NR","lp",NA,NA,NA,NA,0,-3,"first",1,"NR","ex",0
