"","RT","RT_bl","RT_tot","acc_bl","acc_tot","answer_debrief_1","answer_debrief_2","answer_debrief_3","answer_debrief_4","background","bidi","blink_onset","block_cnt","block_type","canvas_backend","clock_backend","color_backend","compensation","coordinates","correct","count_block_loop","count_block_seq","count_block_settings","count_check_session","count_drift_correct","count_end_loop","count_end_seq","count_exp_settings","count_experiment","count_feedback","count_instructions","count_log_variables","count_logger","count_new_inline_script","count_new_pygaze_drift_correct","count_new_pygaze_start_recording","count_new_pygaze_stop_recording","count_pygaze","count_start_recording","count_stop_recording","count_test_location","count_trial","count_trial_loop","count_trial_seq","d_eye","datetime","description","disable_garbage_collection","dist_color","dist_high","dist_loc","dist_shape","empty_column","experiment_file","experiment_path","eye_threshold_length","font_bold","font_family","font_italic","font_size","font_underline","foreground","form_clicks","fullscreen","height","high_loc","high_prob_loc","keyboard_backend","live_row","live_row_block_loop","live_row_trial_loop","logfile","mouse_backend","nr_blinks","nr_trials","nr_trials_bl","opensesame_codename","opensesame_version","orient_list_trial","ping","ping_trigger","ping_type","practice","repeat_cycle","response","round_decimals","sampler_backend","session_nr","sound_buf_size","sound_channels","sound_freq","sound_sample_size","start","subject_nr","subject_parity","target_color","target_high","target_loc","target_shape","time_block_loop","time_block_seq","time_block_settings","time_check_session","time_drift_correct","time_end_loop","time_end_seq","time_exp_settings","time_experiment","time_feedback","time_instructions","time_log_variables","time_logger","time_new_inline_script","time_new_pygaze_drift_correct","time_new_pygaze_start_recording","time_new_pygaze_stop_recording","time_pygaze","time_start_recording","time_stop_recording","time_test_location","time_trial","time_trial_loop","time_trial_seq","title","total_blocks","tracker_dev","trial_type","trials_in_block","trigger","uniform_coordinates","update_blinks","width","x","y","toward","containsNaN","rept","repd","prevtar","pd","nt","pd_c","nt_c","tar_dist","dist_dist","prevHP","eegTar","repteeg","tarcounter"
"1",1127.67660000012,1127.67660000012,1127.67660000012,1,1,"n",3,"['3']","y","#000000","no",419221.1941,1,"neutral","psycho","psycho","psycho",0,"uniform",1,0,0,0,NA,0,0,NA,0,0,0,0,0,0,NA,NA,NA,NA,0,0,0,NA,0,0,0,73.2296414732588,"Tue Jul 20 15:06:03 2021","The main experiment item","yes","red","no","1","circle",NA,"pinging_target_expectations 3.2.osexp","C:\Users\etp-cp-ping\Desktop\LocalPC-EXP",75,"no","mono","no",18,"no","white","no","yes",1050,NA,100,"psycho",0,0,0,"C:/Users/etp-cp-ping/Desktop/LocalPC-EXP/subject-1.csv","psycho",1,1,1,"Lentiform Loewenfeld","3.3.8","['hori', 'vert', 'hori', 'hori', 'vert', 'vert', 'hori', 'vert']","no",209,"None","yes",0,NA,2,"legacy",NA,1024,2,48000,-16,"experiment",1,"odd","green","no",5,"diamond",359986.9871,360080.0401,360080.0816,NA,365746.9898,NA,NA,101766.4254,1628.69299999966,NA,101766.4474,417855.3456,420724.0171,NA,NA,NA,NA,1628.77469999967,417361.8339,NA,NA,417855.3608,417850.9733,417855.2999,"New experiment",19,"[0]","dist_present",56,62,"yes","yes",1680,NA,NA,NA,NA,"NR","NR","lp",NA,NA,NA,NA,NA,NA,"practice",999,"NR","in"
"2",638.730899999267,1766.40749999939,1766.40749999939,2,2,"n",3,"['3']","y","#000000","no",419221.1941,1,"neutral","psycho","psycho","psycho",0,"uniform",1,0,0,0,NA,0,0,NA,0,0,0,0,1,1,NA,NA,NA,NA,0,0,0,NA,1,0,1,73.2296414732588,"Tue Jul 20 15:06:03 2021","The main experiment item","yes","red","no","4","circle",NA,"pinging_target_expectations 3.2.osexp","C:\Users\etp-cp-ping\Desktop\LocalPC-EXP",75,"no","mono","no",18,"no","white","no","yes",1050,NA,100,"psycho",1,0,1,"C:/Users/etp-cp-ping/Desktop/LocalPC-EXP/subject-1.csv","psycho",1,2,2,"Lentiform Loewenfeld","3.3.8","['hori', 'hori', 'hori', 'vert', 'vert', 'vert', 'hori', 'vert']","no",209,"None","yes",0,NA,2,"legacy",NA,1024,2,48000,-16,"experiment",1,"odd","green","no",5,"diamond",359986.9871,360080.0401,360080.0816,NA,365746.9898,NA,NA,101766.4254,1628.69299999966,NA,101766.4474,420765.044100001,423155.9847,NA,NA,NA,NA,1628.77469999967,417361.8339,NA,NA,420765.0585,417850.9733,420764.9938,"New experiment",19,"[0]","dist_present",56,65,"yes","yes",1680,NA,NA,NA,NA,"R","NR","lp",NA,"Right",NA,NA,NA,NA,"practice",5,"NR","in"
"3",1159.38319999987,2925.79069999926,2925.79069999926,3,3,"n",3,"['3']","y","#000000","no",419221.1941,1,"neutral","psycho","psycho","psycho",0,"uniform",1,0,0,0,NA,0,0,NA,0,0,0,0,2,2,NA,NA,NA,NA,0,0,0,NA,2,0,2,73.2296414732588,"Tue Jul 20 15:06:03 2021","The main experiment item","yes","green","no","5","circle",NA,"pinging_target_expectations 3.2.osexp","C:\Users\etp-cp-ping\Desktop\LocalPC-EXP",75,"no","mono","no",18,"no","white","no","yes",1050,NA,100,"psycho",2,0,2,"C:/Users/etp-cp-ping/Desktop/LocalPC-EXP/subject-1.csv","psycho",1,3,3,"Lentiform Loewenfeld","3.3.8","['vert', 'vert', 'vert', 'hori', 'hori', 'hori', 'vert', 'hori']","yes",109,"diamond","yes",0,NA,2,"legacy",NA,1024,2,48000,-16,"experiment",1,"odd","red","no",4,"diamond",359986.9871,360080.0401,360080.0816,NA,365746.9898,NA,NA,101766.4254,1628.69299999966,NA,101766.4474,423186.7745,426276.0234,NA,NA,NA,NA,1628.77469999967,417361.8339,NA,NA,423186.7892,417850.9733,423186.7248,"New experiment",19,"[0]","dist_present",56,56,"yes","yes",1680,NA,NA,NA,NA,"NR","NR","lp","Right",NA,NA,NA,NA,NA,"practice",5,"R","in"
"4",2000.53169999958,4926.32239999884,4926.32239999884,3,3,"n",3,"['3']","y","#000000","no",426707.175,1,"neutral","psycho","psycho","psycho",0,"uniform",0,0,0,0,NA,0,0,NA,0,0,0,0,3,3,NA,NA,NA,NA,0,0,0,NA,3,0,3,73.2296414732588,"Tue Jul 20 15:06:03 2021","The main experiment item","yes","green","no","None","diamond",NA,"pinging_target_expectations 3.2.osexp","C:\Users\etp-cp-ping\Desktop\LocalPC-EXP",75,"no","mono","no",18,"no","white","no","yes",1050,NA,100,"psycho",3,0,3,"C:/Users/etp-cp-ping/Desktop/LocalPC-EXP/subject-1.csv","psycho",2,4,4,"Lentiform Loewenfeld","3.3.8","['vert', 'vert', 'hori', 'hori', 'vert', 'hori', 'hori', 'vert']","yes",109,"circles","yes",0,NA,2,"legacy",NA,1024,2,48000,-16,"experiment",1,"odd","red","no",7,"circle",359986.9871,360080.0401,360080.0816,NA,365746.9898,NA,NA,101766.4254,1628.69299999966,NA,101766.4474,426306.7823,430236.7276,NA,NA,NA,NA,1628.77469999967,417361.8339,NA,NA,426306.7971,417850.9733,426306.7302,"New experiment",19,"[0]","dist_absent",56,89,"yes","yes",1680,NA,NA,NA,NA,"NR","NR","lp",NA,"Right",NA,NA,NA,NA,"practice",4,"NR","in"
"5",1059.3312999999,5985.65369999874,5985.65369999874,4,4,"n",3,"['3']","y","#000000","no",426707.175,1,"neutral","psycho","psycho","psycho",0,"uniform",1,0,0,0,NA,0,0,NA,0,0,0,0,4,4,NA,NA,NA,NA,0,0,0,NA,4,0,4,73.2296414732588,"Tue Jul 20 15:06:03 2021","The main experiment item","yes","green","no","None","circle",NA,"pinging_target_expectations 3.2.osexp","C:\Users\etp-cp-ping\Desktop\LocalPC-EXP",75,"no","mono","no",18,"no","white","no","yes",1050,NA,100,"psycho",4,0,4,"C:/Users/etp-cp-ping/Desktop/LocalPC-EXP/subject-1.csv","psycho",2,5,5,"Lentiform Loewenfeld","3.3.8","['hori', 'vert', 'vert', 'vert', 'vert', 'hori', 'hori', 'hori']","no",209,"None","yes",0,NA,2,"legacy",NA,1024,2,48000,-16,"experiment",1,"odd","red","no",0,"diamond",359986.9871,360080.0401,360080.0816,NA,365746.9898,NA,NA,101766.4254,1628.69299999966,NA,101766.4474,430266.7087,433252.1092,NA,NA,NA,NA,1628.77469999967,417361.8339,NA,NA,430266.7227,417850.9733,430266.6584,"New experiment",19,"[0]","dist_absent",56,19,"yes","yes",1680,NA,NA,NA,NA,"NR","R","lp",NA,NA,NA,NA,NA,NA,"practice",7,"NR","in"
"6",982.417500000389,6968.07119999913,6968.07119999913,5,5,"n",3,"['3']","y","#000000","no",426707.175,1,"neutral","psycho","psycho","psycho",0,"uniform",1,0,0,0,NA,0,0,NA,0,0,0,0,5,5,NA,NA,NA,NA,0,0,0,NA,5,0,5,73.2296414732588,"Tue Jul 20 15:06:03 2021","The main experiment item","yes","green","no","None","diamond",NA,"pinging_target_expectations 3.2.osexp","C:\Users\etp-cp-ping\Desktop\LocalPC-EXP",75,"no","mono","no",18,"no","white","no","yes",1050,NA,100,"psycho",5,0,5,"C:/Users/etp-cp-ping/Desktop/LocalPC-EXP/subject-1.csv","psycho",2,6,6,"Lentiform Loewenfeld","3.3.8","['vert', 'hori', 'vert', 'hori', 'vert', 'hori', 'hori', 'vert']","yes",109,"circles","yes",0,NA,2,"legacy",NA,1024,2,48000,-16,"experiment",1,"odd","red","no",5,"circle",359986.9871,360080.0401,360080.0816,NA,365746.9898,NA,NA,101766.4254,1628.69299999966,NA,101766.4474,433282.4168,436180.0728,NA,NA,NA,NA,1628.77469999967,417361.8339,NA,NA,433282.4315,417850.9733,433282.362800001,"New experiment",19,"[0, 1344.3655614753234, 1336.7655623122512, 1274.4048977764342, 1200.1454499863964, 1122.9326709062634, 1044.8317603104915, 974.8774445586392, 909.5830786024363, 852.7345517736318, 797.1175395206933, 744.2707964820977, 691.2165000924095, 643.1304912757554, 597.4630933293097, 553.2751868115098, 512.2882723018253, 471.2574900194317, 432.88996316329604, 396.4639434544753, 358.4753175818816, 325.7958077345427, 292.148054260012, 264.10150917486004, 235.93921126759528, 206.86259992222455, 180.02425981943503, 156.11740041521026, 134.10654086120857, 115.03305819432802, 98.27557007384894, 82.82832391565145]","dist_absent",56,69,"yes","yes",1680,NA,NA,NA,NA,"NR","R","lp",NA,"Right",NA,NA,NA,NA,"practice",0,"NR","in"
"7",1280.38910000032,8248.46029999945,8248.46029999945,5,5,"n",3,"['3']","y","#000000","no",426707.175,1,"neutral","psycho","psycho","psycho",0,"uniform",0,0,0,0,NA,0,0,NA,0,0,0,0,6,6,NA,NA,NA,NA,0,0,0,NA,6,0,6,73.2296414732588,"Tue Jul 20 15:06:03 2021","The main experiment item","yes","red","no","7","diamond",NA,"pinging_target_expectations 3.2.osexp","C:\Users\etp-cp-ping\Desktop\LocalPC-EXP",75,"no","mono","no",18,"no","white","no","yes",1050,NA,100,"psycho",6,0,6,"C:/Users/etp-cp-ping/Desktop/LocalPC-EXP/subject-1.csv","psycho",2,7,7,"Lentiform Loewenfeld","3.3.8","['vert', 'vert', 'vert', 'hori', 'hori', 'hori', 'vert', 'hori']","yes",109,"diamond","yes",0,NA,2,"legacy",NA,1024,2,48000,-16,"experiment",1,"odd","green","no",0,"circle",359986.9871,360080.0401,360080.0816,NA,365746.9898,NA,NA,101766.4254,1628.69299999966,NA,101766.4474,436210.3932,439284.0403,NA,NA,NA,NA,1628.77469999967,417361.8339,NA,NA,436210.4075,417850.9733,436210.3417,"New experiment",19,"[0]","dist_present",56,18,"yes","yes",1680,NA,NA,NA,NA,"NR","NR","lp","Right",NA,NA,NA,NA,NA,"practice",5,"NR","in"
"8",1463.09430000017,9711.55459999962,9711.55459999962,6,6,"n",3,"['3']","y","#000000","no",439795.3629,1,"neutral","psycho","psycho","psycho",0,"uniform",1,0,0,0,NA,0,0,NA,0,0,0,0,7,7,NA,NA,NA,NA,0,0,0,NA,7,0,7,73.2296414732588,"Tue Jul 20 15:06:03 2021","The main experiment item","yes","green","no","4","circle",NA,"pinging_target_expectations 3.2.osexp","C:\Users\etp-cp-ping\Desktop\LocalPC-EXP",75,"no","mono","no",18,"no","white","no","yes",1050,NA,100,"psycho",7,0,7,"C:/Users/etp-cp-ping/Desktop/LocalPC-EXP/subject-1.csv","psycho",3,8,8,"Lentiform Loewenfeld","3.3.8","['vert', 'hori', 'vert', 'vert', 'hori', 'hori', 'hori', 'vert']","no",209,"None","yes",0,NA,2,"legacy",NA,1024,2,48000,-16,"experiment",1,"odd","red","no",1,"diamond",359986.9871,360080.0401,360080.0816,NA,365746.9898,NA,NA,101766.4254,1628.69299999966,NA,101766.4474,439314.5121,442788.0278,NA,NA,NA,NA,1628.77469999967,417361.8339,NA,NA,439314.5264,417850.9733,439314.4614,"New experiment",19,"[0]","dist_present",56,25,"yes","yes",1680,NA,NA,NA,NA,"NR","NR","lp",NA,"Left",NA,NA,NA,NA,"practice",0,"NR","in"
"9",855.510200000019,10567.0647999996,10567.0647999996,7,7,"n",3,"['3']","y","#000000","no",439795.3629,1,"neutral","psycho","psycho","psycho",0,"uniform",1,0,0,0,NA,0,0,NA,0,0,0,0,8,8,NA,NA,NA,NA,0,0,0,NA,8,0,8,73.2296414732588,"Tue Jul 20 15:06:03 2021","The main experiment item","yes","green","no","3","circle",NA,"pinging_target_expectations 3.2.osexp","C:\Users\etp-cp-ping\Desktop\LocalPC-EXP",75,"no","mono","no",18,"no","white","no","yes",1050,NA,100,"psycho",8,0,8,"C:/Users/etp-cp-ping/Desktop/LocalPC-EXP/subject-1.csv","psycho",3,9,9,"Lentiform Loewenfeld","3.3.8","['hori', 'vert', 'vert', 'hori', 'hori', 'hori', 'vert', 'vert']","yes",109,"diamond","yes",0,NA,2,"legacy",NA,1024,2,48000,-16,"experiment",1,"odd","red","no",7,"diamond",359986.9871,360080.0401,360080.0816,NA,365746.9898,NA,NA,101766.4254,1628.69299999966,NA,101766.4474,442818.7178,445587.9874,NA,NA,NA,NA,1628.77469999967,417361.8339,NA,NA,442818.7322,417850.9733,442818.6671,"New experiment",19,"[0, 73.30059749261076, 74.10819707055398, 77.09115721661492, 78.4780496219273, 79.35523722047053, 78.40315218447331, 76.84815629523399, 76.21861662042646, 75.47300774092768, 74.86419393929539, 75.31163018170001, 76.33935202424247, 77.44761171937746, 78.14765912026513, 78.94460082868238, 78.938266709959, 79.24727662229839, 79.60527620704548, 81.30444981408402, 80.90690552011084, 81.00381555684163, 81.62748032638481, 81.35411352297758, 80.28262538660273, 81.5437466766803, 81.66178187287545, 81.56778082461904, 81.20061090549707, 80.72006563787178, 80.27802707378882, 80.59242030395518, 80.9978404569662, 81.54413863307958, 81.80075569830083, 81.75143130855164, 81.20003429093119, 82.00983863423397, 81.93900170248598, 81.75596720624296, 82.1735953215335, 83.93073342165255, 84.01526376736331, 85.02825788332147, 84.19315960931831, 83.64623040132598, 83.73731627659905, 84.53786083496273, 84.44695443172073, 83.93188685392442, 83.52511865767141, 84.29902377938573, 84.1032971691821, 84.3666242515247, 84.78161410261627, 84.36648980520361, 84.3578676182744, 84.44078641944044, 84.24496264150959, 84.32944089730185, 84.17360846670073, 82.72249817372635, 81.02504757765671, 81.4619531861057, 81.91825074236048, 82.48755795147302, 82.88705361651576, 82.93468350766295, 82.38815652119868, 81.91029929958992, 81.8186457865198]","dist_present",56,84,"yes","yes",1680,NA,NA,NA,NA,"NR","NR","lp",NA,NA,NA,NA,NA,NA,"practice",1,"NR","in"
"10",1042.19769999967,11609.2624999993,11609.2624999993,8,8,"n",3,"['3']","y","#000000","no",439795.3629,1,"neutral","psycho","psycho","psycho",0,"uniform",1,0,0,0,NA,0,0,NA,0,0,0,0,9,9,NA,NA,NA,NA,0,0,0,NA,9,0,9,73.2296414732588,"Tue Jul 20 15:06:03 2021","The main experiment item","yes","green","no","None","circle",NA,"pinging_target_expectations 3.2.osexp","C:\Users\etp-cp-ping\Desktop\LocalPC-EXP",75,"no","mono","no",18,"no","white","no","yes",1050,NA,100,"psycho",9,0,9,"C:/Users/etp-cp-ping/Desktop/LocalPC-EXP/subject-1.csv","psycho",3,10,10,"Lentiform Loewenfeld","3.3.8","['vert', 'vert', 'vert', 'hori', 'vert', 'hori', 'hori', 'hori']","yes",109,"circles","yes",0,NA,2,"legacy",NA,1024,2,48000,-16,"experiment",1,"odd","red","no",2,"diamond",359986.9871,360080.0401,360080.0816,NA,365746.9898,NA,NA,101766.4254,1628.69299999966,NA,101766.4474,445618.3307,448611.9578,NA,NA,NA,NA,1628.77469999967,417361.8339,NA,NA,445618.3451,417850.9733,445618.2801,"New experiment",19,"[0]","dist_absent",56,39,"yes","yes",1680,NA,NA,NA,NA,"NR","NR","lp",NA,"Left",NA,"Left",NA,NA,"practice",7,"NR","in"
"11",1166.50080000004,12775.7632999994,12775.7632999994,9,9,"n",3,"['3']","y","#000000","no",449291.4849,1,"neutral","psycho","psycho","psycho",0,"uniform",1,0,0,0,NA,0,0,NA,0,0,0,0,10,10,NA,NA,NA,NA,0,0,0,NA,10,0,10,73.2296414732588,"Tue Jul 20 15:06:03 2021","The main experiment item","yes","red","no","5","diamond",NA,"pinging_target_expectations 3.2.osexp","C:\Users\etp-cp-ping\Desktop\LocalPC-EXP",75,"no","mono","no",18,"no","white","no","yes",1050,NA,100,"psycho",10,0,10,"C:/Users/etp-cp-ping/Desktop/LocalPC-EXP/subject-1.csv","psycho",4,11,11,"Lentiform Loewenfeld","3.3.8","['vert', 'hori', 'hori', 'vert', 'vert', 'vert', 'hori', 'hori']","no",209,"None","yes",0,NA,2,"legacy",NA,1024,2,48000,-16,"experiment",1,"odd","green","no",3,"circle",359986.9871,360080.0401,360080.0816,NA,365746.9898,NA,NA,101766.4254,1628.69299999966,NA,101766.4474,448642.1571,451540.003300001,NA,NA,NA,NA,1628.77469999967,417361.8339,NA,NA,448642.1719,417850.9733,448642.1056,"New experiment",19,"[0, 76.4147724269921, 113.5638254837175, 243.45880382552815, 411.25800962826196, 606.1243334237311, 823.7599982766482, 1053.0948626413874, 1295.2377472511762, 1465.6439988174252]","dist_present",56,46,"yes","no",1680,NA,NA,NA,NA,"NR","NR","lp",NA,NA,NA,NA,NA,NA,"practice",2,"NR","in"
"12",957.641699999862,13733.4049999992,13733.4049999992,9,9,"n",3,"['3']","y","#000000","no",452259.5407,1,"neutral","psycho","psycho","psycho",0,"uniform",0,0,0,0,NA,0,0,NA,0,0,0,0,11,11,NA,NA,NA,NA,0,0,0,NA,11,0,11,73.2296414732588,"Tue Jul 20 15:06:03 2021","The main experiment item","yes","green","no","1","circle",NA,"pinging_target_expectations 3.2.osexp","C:\Users\etp-cp-ping\Desktop\LocalPC-EXP",75,"no","mono","no",18,"no","white","no","yes",1050,NA,100,"psycho",11,0,11,"C:/Users/etp-cp-ping/Desktop/LocalPC-EXP/subject-1.csv","psycho",5,12,12,"Lentiform Loewenfeld","3.3.8","['vert', 'hori', 'vert', 'vert', 'hori', 'hori', 'vert', 'hori']","no",209,"None","yes",0,NA,2,"legacy",NA,1024,2,48000,-16,"experiment",1,"odd","red","no",6,"diamond",359986.9871,360080.0401,360080.0816,NA,365746.9898,NA,NA,101766.4254,1628.69299999966,NA,101766.4474,451570.2664,454163.964,NA,NA,NA,NA,1628.77469999967,417361.8339,NA,NA,451570.281,417850.9733,451570.2148,"New experiment",19,"[0, 109.66883972550738, 208.73933651305617, 337.1078217483057, 480.6092406084223, 634.9303820066573, 797.141208195402, 971.1821702190921, 1137.3624741340643, 1319.2359175641818, 1434.5042598774144]","dist_present",56,72,"yes","no",1680,NA,NA,NA,NA,"NR","NR","lp",NA,NA,NA,NA,NA,NA,"practice",3,"NR","in"
"13",1554.7447000008,15288.1497,15288.1497,10,10,"n",3,"['3']","y","#000000","no",452259.5407,1,"neutral","psycho","psycho","psycho",0,"uniform",1,0,0,0,NA,0,0,NA,0,0,0,0,12,12,NA,NA,NA,NA,0,0,0,NA,12,0,12,73.2296414732588,"Tue Jul 20 15:06:03 2021","The main experiment item","yes","red","no","7","diamond",NA,"pinging_target_expectations 3.2.osexp","C:\Users\etp-cp-ping\Desktop\LocalPC-EXP",75,"no","mono","no",18,"no","white","no","yes",1050,NA,100,"psycho",12,0,12,"C:/Users/etp-cp-ping/Desktop/LocalPC-EXP/subject-1.csv","psycho",5,13,13,"Lentiform Loewenfeld","3.3.8","['vert', 'hori', 'hori', 'hori', 'hori', 'vert', 'vert', 'vert']","yes",109,"diamond","yes",0,NA,2,"legacy",NA,1024,2,48000,-16,"experiment",1,"odd","green","no",1,"circle",359986.9871,360080.0401,360080.0816,NA,365746.9898,NA,NA,101766.4254,1628.69299999966,NA,101766.4474,454194.1908,457715.9722,NA,NA,NA,NA,1628.77469999967,417361.8339,NA,NA,454194.205100001,417850.9733,454194.1389,"New experiment",19,"[0]","dist_present",56,28,"yes","yes",1680,NA,NA,NA,NA,"NR","NR","lp",NA,NA,NA,NA,NA,NA,"practice",6,"NR","in"
"14",1465.71629999927,16753.8659999993,16753.8659999993,11,11,"n",3,"['3']","y","#000000","no",458089.6106,1,"neutral","psycho","psycho","psycho",0,"uniform",1,0,0,0,NA,0,0,NA,0,0,0,0,13,13,NA,NA,NA,NA,0,0,0,NA,13,0,13,73.2296414732588,"Tue Jul 20 15:06:03 2021","The main experiment item","yes","green","no","None","circle",NA,"pinging_target_expectations 3.2.osexp","C:\Users\etp-cp-ping\Desktop\LocalPC-EXP",75,"no","mono","no",18,"no","white","no","yes",1050,NA,100,"psycho",13,0,13,"C:/Users/etp-cp-ping/Desktop/LocalPC-EXP/subject-1.csv","psycho",6,14,14,"Lentiform Loewenfeld","3.3.8","['hori', 'hori', 'hori', 'vert', 'vert', 'vert', 'hori', 'vert']","no",209,"None","yes",0,NA,2,"legacy",NA,1024,2,48000,-16,"experiment",1,"odd","red","no",2,"diamond",359986.9871,360080.0401,360080.0816,NA,365746.9898,NA,NA,101766.4254,1628.69299999966,NA,101766.4474,457747.6042,460932.0545,NA,NA,NA,NA,1628.77469999967,417361.8339,NA,NA,457747.618500001,417850.9733,457747.5524,"New experiment",19,"[0]","dist_absent",56,39,"yes","no",1680,NA,NA,NA,NA,"NR","NR","lp",NA,"Left",NA,"Left",NA,NA,"practice",1,"NR","in"
"15",1417.67869999964,18171.5446999989,18171.5446999989,12,12,"n",3,"['3']","y","#000000","no",461783.648000001,1,"neutral","psycho","psycho","psycho",0,"uniform",1,0,0,0,NA,0,0,NA,0,0,0,0,14,14,NA,NA,NA,NA,0,0,0,NA,14,0,14,73.2296414732588,"Tue Jul 20 15:06:03 2021","The main experiment item","yes","green","no","None","diamond",NA,"pinging_target_expectations 3.2.osexp","C:\Users\etp-cp-ping\Desktop\LocalPC-EXP",75,"no","mono","no",18,"no","white","no","yes",1050,NA,100,"psycho",14,0,14,"C:/Users/etp-cp-ping/Desktop/LocalPC-EXP/subject-1.csv","psycho",7,15,15,"Lentiform Loewenfeld","3.3.8","['hori', 'vert', 'hori', 'vert', 'vert', 'hori', 'vert', 'hori']","no",209,"None","yes",0,NA,2,"legacy",NA,1024,2,48000,-16,"experiment",1,"odd","red","no",6,"circle",359986.9871,360080.0401,360080.0816,NA,365746.9898,NA,NA,101766.4254,1628.69299999966,NA,101766.4474,460962.2843,464339.9959,NA,NA,NA,NA,1628.77469999967,417361.8339,NA,NA,460962.2986,417850.9733,460962.232,"New experiment",19,"[0, 77.52837741240276, 149.59810197411784, 261.06346317828894, 398.5060727940179, 559.3541467699955, 737.4866319299582, 930.5195558219572, 1138.5818909770787, 1361.0063173204353, 1416.0502079776948]","dist_absent",56,79,"yes","no",1680,NA,NA,NA,NA,"NR","R","lp",NA,"Right",NA,"Right",NA,NA,"practice",2,"NR","in"
"16",2000.38469999982,20171.9293999987,20171.9293999987,12,12,"n",3,"['3']","y","#000000","no",465125.7071,1,"neutral","psycho","psycho","psycho",0,"uniform",0,0,0,0,NA,0,0,NA,0,0,0,0,15,15,NA,NA,NA,NA,0,0,0,NA,15,0,15,73.2296414732588,"Tue Jul 20 15:06:03 2021","The main experiment item","yes","red","no","6","diamond",NA,"pinging_target_expectations 3.2.osexp","C:\Users\etp-cp-ping\Desktop\LocalPC-EXP",75,"no","mono","no",18,"no","white","no","yes",1050,NA,100,"psycho",15,0,15,"C:/Users/etp-cp-ping/Desktop/LocalPC-EXP/subject-1.csv","psycho",8,16,16,"Lentiform Loewenfeld","3.3.8","['vert', 'vert', 'vert', 'vert', 'hori', 'hori', 'hori', 'hori']","no",209,"None","yes",0,NA,2,"legacy",NA,1024,2,48000,-16,"experiment",1,"odd","green","no",2,"circle",359986.9871,360080.0401,360080.0816,NA,365746.9898,NA,NA,101766.4254,1628.69299999966,NA,101766.4474,464370.2563,468004.5687,NA,NA,NA,NA,1628.77469999967,417361.8339,NA,NA,464370.270500001,417850.9733,464370.2053,"New experiment",19,"[0, 92.74825133122538, 153.30703887606094, 237.56179618540665, 339.1379024201083, 457.83066596051424, 592.2788295215478, 733.5765383447483, 879.1054565135378, 1035.4965521934357, 1189.1131218117325, 1351.3310358629128, 1392.2813921691525]","dist_present",56,37,"yes","no",1680,NA,NA,NA,NA,"NR","NR","lp",NA,NA,NA,NA,NA,NA,"practice",6,"NR","in"
"17",1630.55430000077,21802.4836999995,21802.4836999995,13,13,"n",3,"['3']","y","#000000","no",469039.7984,1,"neutral","psycho","psycho","psycho",0,"uniform",1,0,0,0,NA,0,0,NA,0,0,0,0,16,16,NA,NA,NA,NA,0,0,0,NA,16,0,16,73.2296414732588,"Tue Jul 20 15:06:03 2021","The main experiment item","yes","green","no","1","diamond",NA,"pinging_target_expectations 3.2.osexp","C:\Users\etp-cp-ping\Desktop\LocalPC-EXP",75,"no","mono","no",18,"no","white","no","yes",1050,NA,100,"psycho",16,0,16,"C:/Users/etp-cp-ping/Desktop/LocalPC-EXP/subject-1.csv","psycho",9,17,17,"Lentiform Loewenfeld","3.3.8","['vert', 'hori', 'hori', 'hori', 'vert', 'hori', 'vert', 'vert']","no",209,"None","yes",0,NA,2,"legacy",NA,1024,2,48000,-16,"experiment",1,"odd","red","no",2,"circle",359986.9871,360080.0401,360080.0816,NA,365746.9898,NA,NA,101766.4254,1628.69299999966,NA,101766.4474,468034.837,471812.0454,NA,NA,NA,NA,1628.77469999967,417361.8339,NA,NA,468034.8532,417850.9733,468034.6685,"New experiment",19,"[0, 117.34362617545192, 216.28524231320364, 336.6142501634284, 483.4582623258528, 653.1627986707318, 849.0111647965656, 1052.9536270708797, 1284.445896648052, 1464.7177208718213]","dist_present",56,32,"yes","no",1680,NA,NA,NA,NA,"R","NR","lp",NA,NA,NA,NA,NA,NA,"practice",2,"NR","in"
"18",1883.39189999987,23685.8755999994,23685.8755999994,14,14,"n",3,"['3']","y","#000000","no",472353.8091,1,"neutral","psycho","psycho","psycho",0,"uniform",1,0,0,0,NA,0,0,NA,0,0,0,0,17,17,NA,NA,NA,NA,0,0,0,NA,17,0,17,73.2296414732588,"Tue Jul 20 15:06:03 2021","The main experiment item","yes","red","no","7","diamond",NA,"pinging_target_expectations 3.2.osexp","C:\Users\etp-cp-ping\Desktop\LocalPC-EXP",75,"no","mono","no",18,"no","white","no","yes",1050,NA,100,"psycho",17,0,17,"C:/Users/etp-cp-ping/Desktop/LocalPC-EXP/subject-1.csv","psycho",10,18,18,"Lentiform Loewenfeld","3.3.8","['hori', 'vert', 'hori', 'vert', 'hori', 'vert', 'vert', 'hori']","yes",109,"diamond","yes",0,NA,2,"legacy",NA,1024,2,48000,-16,"experiment",1,"odd","green","no",0,"circle",359986.9871,360080.0401,360080.0816,NA,365746.9898,NA,NA,101766.4254,1628.69299999966,NA,101766.4474,471842.6693,475716.085300001,NA,NA,NA,NA,1628.77469999967,417361.8339,NA,NA,471842.6835,417850.9733,471842.6177,"New experiment",19,"[0, 572.761948805959, 781.4451271759973, 1014.4253348475037, 1276.0527105903896, 1341.7958662841925]","dist_present",56,18,"yes","no",1680,NA,NA,NA,NA,"NR","NR","lp","Right",NA,NA,NA,NA,NA,"practice",2,"R","in"
"19",1773.44059999997,25459.3161999994,25459.3161999994,15,15,"n",3,"['3']","y","#000000","no",472353.8091,1,"neutral","psycho","psycho","psycho",0,"uniform",1,0,0,0,NA,0,0,NA,0,0,0,0,18,18,NA,NA,NA,NA,0,0,0,NA,18,0,18,73.2296414732588,"Tue Jul 20 15:06:03 2021","The main experiment item","yes","red","no","None","circle",NA,"pinging_target_expectations 3.2.osexp","C:\Users\etp-cp-ping\Desktop\LocalPC-EXP",75,"no","mono","no",18,"no","white","no","yes",1050,NA,100,"psycho",18,0,18,"C:/Users/etp-cp-ping/Desktop/LocalPC-EXP/subject-1.csv","psycho",10,19,19,"Lentiform Loewenfeld","3.3.8","['vert', 'hori', 'hori', 'vert', 'hori', 'hori', 'vert', 'vert']","yes",109,"diamond","yes",0,NA,2,"legacy",NA,1024,2,48000,-16,"experiment",1,"odd","green","no",7,"diamond",359986.9871,360080.0401,360080.0816,NA,365746.9898,NA,NA,101766.4254,1628.69299999966,NA,101766.4474,475746.5826,479460.0174,NA,NA,NA,NA,1628.77469999967,417361.8339,NA,NA,475746.5973,417850.9733,475746.530500001,"New experiment",19,"[0]","dist_absent",56,89,"yes","yes",1680,NA,NA,NA,NA,"NR","NR","lp",NA,"Right",NA,NA,NA,NA,"practice",0,"NR","in"
"20",1572.19480000006,27031.5109999994,27031.5109999994,16,16,"n",3,"['3']","y","#000000","no",480049.942000001,1,"neutral","psycho","psycho","psycho",0,"uniform",1,0,0,0,NA,0,0,NA,0,0,0,0,19,19,NA,NA,NA,NA,0,0,0,NA,19,0,19,73.2296414732588,"Tue Jul 20 15:06:03 2021","The main experiment item","yes","green","no","3","diamond",NA,"pinging_target_expectations 3.2.osexp","C:\Users\etp-cp-ping\Desktop\LocalPC-EXP",75,"no","mono","no",18,"no","white","no","yes",1050,NA,100,"psycho",19,0,19,"C:/Users/etp-cp-ping/Desktop/LocalPC-EXP/subject-1.csv","psycho",11,20,20,"Lentiform Loewenfeld","3.3.8","['vert', 'hori', 'hori', 'hori', 'vert', 'hori', 'vert', 'vert']","yes",109,"circles","yes",0,NA,2,"legacy",NA,1024,2,48000,-16,"experiment",1,"odd","red","no",4,"circle",359986.9871,360080.0401,360080.0816,NA,365746.9898,NA,NA,101766.4254,1628.69299999966,NA,101766.4474,479490.3843,482851.982,NA,NA,NA,NA,1628.77469999967,417361.8339,NA,NA,479490.399,417850.9733,479490.3329,"New experiment",19,"[0, 134.19812497052862, 254.3935811462599, 391.5478253684745, 537.8662473370281, 699.335097024088, 856.307592741201, 1016.2160846316424, 1178.9785820255613, 1342.8057165165678, 1383.4785339326882]","dist_present",56,54,"yes","no",1680,NA,NA,NA,NA,"NR","NR","lp","Left",NA,NA,NA,NA,NA,"practice",7,"NR","in"
"21",2000.90410000033,29032.4150999998,29032.4150999998,16,16,"n",3,"['3']","y","#000000","no",483479.9714,1,"neutral","psycho","psycho","psycho",0,"uniform",0,0,0,0,NA,0,0,NA,0,0,0,0,20,20,NA,NA,NA,NA,0,0,0,NA,20,0,20,73.2296414732588,"Tue Jul 20 15:06:03 2021","The main experiment item","yes","green","no","None","circle",NA,"pinging_target_expectations 3.2.osexp","C:\Users\etp-cp-ping\Desktop\LocalPC-EXP",75,"no","mono","no",18,"no","white","no","yes",1050,NA,100,"psycho",20,0,20,"C:/Users/etp-cp-ping/Desktop/LocalPC-EXP/subject-1.csv","psycho",12,21,21,"Lentiform Loewenfeld","3.3.8","['hori', 'hori', 'hori', 'vert', 'vert', 'hori', 'vert', 'vert']","yes",109,"diamond","yes",0,NA,2,"legacy",NA,1024,2,48000,-16,"experiment",1,"odd","red","no",6,"diamond",359986.9871,360080.0401,360080.0816,NA,365746.9898,NA,NA,101766.4254,1628.69299999966,NA,101766.4474,482882.1545,486718.8279,NA,NA,NA,NA,1628.77469999967,417361.8339,NA,NA,482882.1692,417850.9733,482882.1009,"New experiment",19,"[0]","dist_absent",56,79,"yes","yes",1680,NA,NA,NA,NA,"NR","NR","lp",NA,"Right",NA,"Right",NA,NA,"practice",4,"NR","in"
"22",882.063299999572,29914.4783999993,29914.4783999993,17,17,"n",3,"['3']","y","#000000","no",483479.9714,1,"neutral","psycho","psycho","psycho",0,"uniform",1,0,0,0,NA,0,0,NA,0,0,0,0,21,21,NA,NA,NA,NA,0,0,0,NA,21,0,21,73.2296414732588,"Tue Jul 20 15:06:03 2021","The main experiment item","yes","red","no","None","diamond",NA,"pinging_target_expectations 3.2.osexp","C:\Users\etp-cp-ping\Desktop\LocalPC-EXP",75,"no","mono","no",18,"no","white","no","yes",1050,NA,100,"psycho",21,0,21,"C:/Users/etp-cp-ping/Desktop/LocalPC-EXP/subject-1.csv","psycho",12,22,22,"Lentiform Loewenfeld","3.3.8","['vert', 'vert', 'vert', 'hori', 'vert', 'hori', 'hori', 'hori']","yes",109,"circles","yes",0,NA,2,"legacy",NA,1024,2,48000,-16,"experiment",1,"odd","green","no",3,"circle",359986.9871,360080.0401,360080.0816,NA,365746.9898,NA,NA,101766.4254,1628.69299999966,NA,101766.4474,486748.9279,489571.9945,NA,NA,NA,NA,1628.77469999967,417361.8339,NA,NA,486748.9423,417850.9733,486748.8772,"New experiment",19,"[0]","dist_absent",56,49,"yes","yes",1680,NA,NA,NA,NA,"NR","R","lp",NA,"Left",NA,NA,NA,NA,"practice",6,"NR","in"
"23",1063.11809999991,30977.5964999992,30977.5964999992,17,17,"n",3,"['3']","y","#000000","no",489910.0761,1,"neutral","psycho","psycho","psycho",0,"uniform",0,0,0,0,NA,0,0,NA,0,0,0,0,22,22,NA,NA,NA,NA,0,0,0,NA,22,0,22,73.2296414732588,"Tue Jul 20 15:06:03 2021","The main experiment item","yes","green","no","0","circle",NA,"pinging_target_expectations 3.2.osexp","C:\Users\etp-cp-ping\Desktop\LocalPC-EXP",75,"no","mono","no",18,"no","white","no","yes",1050,NA,100,"psycho",22,0,22,"C:/Users/etp-cp-ping/Desktop/LocalPC-EXP/subject-1.csv","psycho",13,23,23,"Lentiform Loewenfeld","3.3.8","['hori', 'vert', 'hori', 'hori', 'hori', 'vert', 'vert', 'vert']","yes",109,"circles","yes",0,NA,2,"legacy",NA,1024,2,48000,-16,"experiment",1,"odd","red","no",2,"diamond",359986.9871,360080.0401,360080.0816,NA,365746.9898,NA,NA,101766.4254,1628.69299999966,NA,101766.4474,489602.9943,492291.9894,NA,NA,NA,NA,1628.77469999967,417361.8339,NA,NA,489603.0086,417850.9733,489602.9446,"New experiment",19,"[0]","dist_present",56,31,"yes","yes",1680,NA,NA,NA,NA,"NR","NR","lp",NA,"Left",NA,"Left",NA,NA,"practice",3,"NR","in"
"24",1305.86949999997,32283.4659999992,32283.4659999992,18,18,"n",3,"['3']","y","#000000","no",489910.0761,1,"neutral","psycho","psycho","psycho",0,"uniform",1,0,0,0,NA,0,0,NA,0,0,0,0,23,23,NA,NA,NA,NA,0,0,0,NA,23,0,23,73.2296414732588,"Tue Jul 20 15:06:03 2021","The main experiment item","yes","green","no","5","circle",NA,"pinging_target_expectations 3.2.osexp","C:\Users\etp-cp-ping\Desktop\LocalPC-EXP",75,"no","mono","no",18,"no","white","no","yes",1050,NA,100,"psycho",23,0,23,"C:/Users/etp-cp-ping/Desktop/LocalPC-EXP/subject-1.csv","psycho",13,24,24,"Lentiform Loewenfeld","3.3.8","['vert', 'hori', 'vert', 'hori', 'hori', 'vert', 'hori', 'vert']","no",209,"None","yes",0,NA,2,"legacy",NA,1024,2,48000,-16,"experiment",1,"odd","red","no",1,"diamond",359986.9871,360080.0401,360080.0816,NA,365746.9898,NA,NA,101766.4254,1628.69299999966,NA,101766.4474,492322.5397,495571.9836,NA,NA,NA,NA,1628.77469999967,417361.8339,NA,NA,492322.554,417850.9733,492322.4897,"New experiment",19,"[0, 347.6700530265515, 307.27226438129514, 273.5259730975929, 238.69923481173402, 203.72161003922338, 170.22761170020684, 137.18051399674408, 109.11482314015358, 83.79553713329356]","dist_present",56,26,"yes","yes",1680,NA,NA,NA,NA,"NR","NR","lp",NA,NA,NA,NA,NA,NA,"practice",2,"NR","in"
"25",1533.19650000054,33816.6624999997,33816.6624999997,19,19,"n",3,"['3']","y","#000000","no",496494.1183,1,"neutral","psycho","psycho","psycho",0,"uniform",1,0,0,0,NA,0,0,NA,0,0,0,0,24,24,NA,NA,NA,NA,0,0,0,NA,24,0,24,73.2296414732588,"Tue Jul 20 15:06:03 2021","The main experiment item","yes","green","no","6","diamond",NA,"pinging_target_expectations 3.2.osexp","C:\Users\etp-cp-ping\Desktop\LocalPC-EXP",75,"no","mono","no",18,"no","white","no","yes",1050,NA,100,"psycho",24,0,24,"C:/Users/etp-cp-ping/Desktop/LocalPC-EXP/subject-1.csv","psycho",15,25,25,"Lentiform Loewenfeld","3.3.8","['hori', 'vert', 'hori', 'hori', 'hori', 'vert', 'vert', 'vert']","yes",109,"circles","yes",0,NA,2,"legacy",NA,1024,2,48000,-16,"experiment",1,"odd","red","no",5,"circle",359986.9871,360080.0401,360080.0816,NA,365746.9898,NA,NA,101766.4254,1628.69299999966,NA,101766.4474,495602.1509,499155.9153,NA,NA,NA,NA,1628.77469999967,417361.8339,NA,NA,495602.1656,417850.9733,495602.0979,"New experiment",19,"[0, 99.45218738511358, 217.1231108802572, 359.12393403949005, 523.0427582338931, 697.0727397670689, 877.2326476068616, 1067.5229068778738, 1268.784791175542, 1417.2364683587898, 97.0012886512339, 79.72033556035603, 74.6649199326891, 83.89331307390222, 190.82852318568828, 330.8870653259205, 502.9820543003947, 702.8472864334594, 929.828020459611, 1197.575468753171, 1411.7389638252628]","dist_present",56,67,"yes","no",1680,NA,NA,NA,NA,"NR","NR","lp",NA,NA,NA,NA,NA,NA,"practice",1,"NR","in"
"26",1225.01460000058,35041.6771000003,35041.6771000003,20,20,"n",3,"['3']","y","#000000","no",500074.2259,1,"neutral","psycho","psycho","psycho",0,"uniform",1,0,0,0,NA,0,0,NA,0,0,0,0,25,25,NA,NA,NA,NA,0,0,0,NA,25,0,25,73.2296414732588,"Tue Jul 20 15:06:03 2021","The main experiment item","yes","red","no","4","diamond",NA,"pinging_target_expectations 3.2.osexp","C:\Users\etp-cp-ping\Desktop\LocalPC-EXP",75,"no","mono","no",18,"no","white","no","yes",1050,NA,100,"psycho",25,0,25,"C:/Users/etp-cp-ping/Desktop/LocalPC-EXP/subject-1.csv","psycho",16,26,26,"Lentiform Loewenfeld","3.3.8","['hori', 'vert', 'vert', 'vert', 'hori', 'hori', 'vert', 'hori']","yes",109,"diamond","yes",0,NA,2,"legacy",NA,1024,2,48000,-16,"experiment",1,"odd","green","no",0,"circle",359986.9871,360080.0401,360080.0816,NA,365746.9898,NA,NA,101766.4254,1628.69299999966,NA,101766.4474,499186.3551,502483.9433,NA,NA,NA,NA,1628.77469999967,417361.8339,NA,NA,499186.369,417850.9733,499186.3042,"New experiment",19,"[0, 78.10639769156019, 75.19203257457177, 134.21971902844425, 226.20885376673718, 343.4427057051169, 481.171897548304, 636.5425680214332, 805.6148273213447, 978.8377869040864, 1164.7186982799974, 1318.0320262596424]","dist_present",56,15,"yes","no",1680,NA,NA,NA,NA,"NR","NR","lp",NA,NA,NA,NA,NA,NA,"practice",5,"NR","in"
"27",2000.19689999957,37041.8739999999,37041.8739999999,20,20,"n",3,"['3']","y","#000000","no",503466.2581,1,"neutral","psycho","psycho","psycho",0,"uniform",0,0,0,0,NA,0,0,NA,0,0,0,0,26,26,NA,NA,NA,NA,0,0,0,NA,26,0,26,73.2296414732588,"Tue Jul 20 15:06:03 2021","The main experiment item","yes","green","no","2","diamond",NA,"pinging_target_expectations 3.2.osexp","C:\Users\etp-cp-ping\Desktop\LocalPC-EXP",75,"no","mono","no",18,"no","white","no","yes",1050,NA,100,"psycho",26,0,26,"C:/Users/etp-cp-ping/Desktop/LocalPC-EXP/subject-1.csv","psycho",17,27,27,"Lentiform Loewenfeld","3.3.8","['vert', 'hori', 'vert', 'hori', 'vert', 'hori', 'hori', 'vert']","yes",109,"circles","yes",0,NA,2,"legacy",NA,1024,2,48000,-16,"experiment",1,"odd","red","no",6,"circle",359986.9871,360080.0401,360080.0816,NA,365746.9898,NA,NA,101766.4254,1628.69299999966,NA,101766.4474,502514.182,506335.6534,NA,NA,NA,NA,1628.77469999967,417361.8339,NA,NA,502514.1971,417850.9733,502514.131200001,"New experiment",19,"[0, 136.75029729779712, 234.45513259303993, 347.0017434340779, 478.9389313889611, 632.2966398430697, 797.9717091590181, 976.1955186549939, 1175.2182943604203, 1329.0073231661665]","dist_present",56,73,"yes","no",1680,NA,NA,NA,NA,"NR","NR","lp",NA,NA,NA,NA,NA,NA,"practice",0,"NR","in"
"28",1167.76289999962,38209.6368999995,38209.6368999995,21,21,"n",3,"['3']","y","#000000","no",507154.3046,1,"neutral","psycho","psycho","psycho",0,"uniform",1,0,0,0,NA,0,0,NA,0,0,0,0,27,27,NA,NA,NA,NA,0,0,0,NA,27,0,27,73.2296414732588,"Tue Jul 20 15:06:03 2021","The main experiment item","yes","red","no","0","circle",NA,"pinging_target_expectations 3.2.osexp","C:\Users\etp-cp-ping\Desktop\LocalPC-EXP",75,"no","mono","no",18,"no","white","no","yes",1050,NA,100,"psycho",27,0,27,"C:/Users/etp-cp-ping/Desktop/LocalPC-EXP/subject-1.csv","psycho",18,28,28,"Lentiform Loewenfeld","3.3.8","['vert', 'hori', 'hori', 'vert', 'hori', 'vert', 'hori', 'vert']","no",209,"None","yes",0,NA,2,"legacy",NA,1024,2,48000,-16,"experiment",1,"odd","green","no",4,"diamond",359986.9871,360080.0401,360080.0816,NA,365746.9898,NA,NA,101766.4254,1628.69299999966,NA,101766.4474,506365.6032,509204.042,NA,NA,NA,NA,1628.77469999967,417361.8339,NA,NA,506365.6177,417850.9733,506365.5529,"New experiment",19,"[0]","dist_present",56,51,"yes","yes",1680,NA,NA,NA,NA,"NR","NR","lp",NA,NA,NA,NA,NA,NA,"practice",6,"NR","in"
"29",1095.43969999958,39305.0765999991,39305.0765999991,22,22,"n",3,"['3']","y","#000000","no",509668.3905,1,"neutral","psycho","psycho","psycho",0,"uniform",1,0,0,0,NA,0,0,NA,0,0,0,0,28,28,NA,NA,NA,NA,0,0,0,NA,28,0,28,73.2296414732588,"Tue Jul 20 15:06:03 2021","The main experiment item","yes","green","no","None","diamond",NA,"pinging_target_expectations 3.2.osexp","C:\Users\etp-cp-ping\Desktop\LocalPC-EXP",75,"no","mono","no",18,"no","white","no","yes",1050,NA,100,"psycho",28,0,28,"C:/Users/etp-cp-ping/Desktop/LocalPC-EXP/subject-1.csv","psycho",19,29,29,"Lentiform Loewenfeld","3.3.8","['hori', 'vert', 'hori', 'hori', 'vert', 'vert', 'vert', 'hori']","no",209,"None","yes",0,NA,2,"legacy",NA,1024,2,48000,-16,"experiment",1,"odd","red","no",2,"circle",359986.9871,360080.0401,360080.0816,NA,365746.9898,NA,NA,101766.4254,1628.69299999966,NA,101766.4474,509234.834200001,512292.0743,NA,NA,NA,NA,1628.77469999967,417361.8339,NA,NA,509234.8487,417850.9733,509234.7841,"New experiment",19,"[0, 131.71517303120692, 252.30872703454733, 393.94571983432184, 552.474546896293, 728.8231952949906, 915.8638566223628, 1117.254894820336, 1334.466886925189, 1386.7374050629003]","dist_absent",56,39,"yes","no",1680,NA,NA,NA,NA,"NR","NR","lp",NA,"Left",NA,"Left",NA,NA,"practice",4,"NR","in"
"30",1564.50250000035,40869.5790999994,40869.5790999994,23,23,"n",3,"['3']","y","#000000","no",512806.4007,1,"neutral","psycho","psycho","psycho",0,"uniform",1,0,0,0,NA,0,0,NA,0,0,0,0,29,29,NA,NA,NA,NA,0,0,0,NA,29,0,29,73.2296414732588,"Tue Jul 20 15:06:03 2021","The main experiment item","yes","green","no","6","diamond",NA,"pinging_target_expectations 3.2.osexp","C:\Users\etp-cp-ping\Desktop\LocalPC-EXP",75,"no","mono","no",18,"no","white","no","yes",1050,NA,100,"psycho",29,0,29,"C:/Users/etp-cp-ping/Desktop/LocalPC-EXP/subject-1.csv","psycho",20,30,30,"Lentiform Loewenfeld","3.3.8","['vert', 'vert', 'vert', 'vert', 'hori', 'hori', 'hori', 'hori']","yes",109,"diamond","yes",0,NA,2,"legacy",NA,1024,2,48000,-16,"experiment",1,"odd","red","no",5,"circle",359986.9871,360080.0401,360080.0816,NA,365746.9898,NA,NA,101766.4254,1628.69299999966,NA,101766.4474,512322.5539,515795.9426,NA,NA,NA,NA,1628.77469999967,417361.8339,NA,NA,512322.568600001,417850.9733,512322.5015,"New experiment",19,"[0, 303.3148242259435, 452.49689558888497, 614.7841489060173, 787.9367043106953, 971.9562958826696, 1167.0454648936814, 1365.8754853712276, 1413.2158644493247]","dist_present",56,67,"yes","no",1680,NA,NA,NA,NA,"NR","NR","lp",NA,NA,NA,NA,NA,NA,"practice",2,"NR","in"
"31",1152.1362000003,42021.7152999997,42021.7152999997,24,24,"n",3,"['3']","y","#000000","no",512806.4007,1,"neutral","psycho","psycho","psycho",0,"uniform",1,0,0,0,NA,0,0,NA,0,0,0,0,30,30,NA,NA,NA,NA,0,0,0,NA,30,0,30,73.2296414732588,"Tue Jul 20 15:06:03 2021","The main experiment item","yes","green","no","None","diamond",NA,"pinging_target_expectations 3.2.osexp","C:\Users\etp-cp-ping\Desktop\LocalPC-EXP",75,"no","mono","no",18,"no","white","no","yes",1050,NA,100,"psycho",30,0,30,"C:/Users/etp-cp-ping/Desktop/LocalPC-EXP/subject-1.csv","psycho",20,31,31,"Lentiform Loewenfeld","3.3.8","['vert', 'hori', 'vert', 'hori', 'vert', 'hori', 'vert', 'hori']","no",209,"None","yes",0,NA,2,"legacy",NA,1024,2,48000,-16,"experiment",1,"odd","red","no",6,"circle",359986.9871,360080.0401,360080.0816,NA,365746.9898,NA,NA,101766.4254,1628.69299999966,NA,101766.4474,515826.3154,518659.9781,NA,NA,NA,NA,1628.77469999967,417361.8339,NA,NA,515826.3295,417850.9733,515826.265,"New experiment",19,"[0]","dist_absent",56,79,"yes","yes",1680,NA,NA,NA,NA,"NR","NR","lp",NA,"Right",NA,"Right",NA,NA,"practice",5,"NR","in"
"32",1488.86870000028,43510.584,43510.584,25,25,"n",3,"['3']","y","#000000","no",519104.5147,1,"neutral","psycho","psycho","psycho",0,"uniform",1,0,0,0,NA,0,0,NA,0,0,0,0,31,31,NA,NA,NA,NA,0,0,0,NA,31,0,31,73.2296414732588,"Tue Jul 20 15:06:03 2021","The main experiment item","yes","green","no","None","circle",NA,"pinging_target_expectations 3.2.osexp","C:\Users\etp-cp-ping\Desktop\LocalPC-EXP",75,"no","mono","no",18,"no","white","no","yes",1050,NA,100,"psycho",31,0,31,"C:/Users/etp-cp-ping/Desktop/LocalPC-EXP/subject-1.csv","psycho",21,32,32,"Lentiform Loewenfeld","3.3.8","['hori', 'hori', 'vert', 'hori', 'vert', 'vert', 'hori', 'vert']","yes",109,"circles","yes",0,NA,2,"legacy",NA,1024,2,48000,-16,"experiment",1,"odd","red","no",4,"diamond",359986.9871,360080.0401,360080.0816,NA,365746.9898,NA,NA,101766.4254,1628.69299999966,NA,101766.4474,518690.4023,521923.9267,NA,NA,NA,NA,1628.77469999967,417361.8339,NA,NA,518690.4171,417850.9733,518690.3497,"New experiment",19,"[0, 85.08279260038417, 187.25426695583002, 321.40940190481933, 486.1319666801603, 668.5601364060017, 856.7653036947958, 1059.0653012466655, 1276.094650460379, 1435.8765874934104]","dist_absent",56,59,"yes","no",1680,NA,NA,NA,NA,"NR","R","lp",NA,NA,NA,NA,NA,NA,"practice",6,"NR","in"
"33",1635.30590000033,45145.8899000004,45145.8899000004,26,26,"n",3,"['3']","y","#000000","no",519104.5147,1,"neutral","psycho","psycho","psycho",0,"uniform",1,0,0,0,NA,0,0,NA,0,0,0,0,32,32,NA,NA,NA,NA,0,0,0,NA,32,0,32,73.2296414732588,"Tue Jul 20 15:06:03 2021","The main experiment item","yes","green","no","5","diamond",NA,"pinging_target_expectations 3.2.osexp","C:\Users\etp-cp-ping\Desktop\LocalPC-EXP",75,"no","mono","no",18,"no","white","no","yes",1050,NA,100,"psycho",32,0,32,"C:/Users/etp-cp-ping/Desktop/LocalPC-EXP/subject-1.csv","psycho",21,33,33,"Lentiform Loewenfeld","3.3.8","['hori', 'hori', 'hori', 'hori', 'vert', 'vert', 'vert', 'vert']","no",209,"None","yes",0,NA,2,"legacy",NA,1024,2,48000,-16,"experiment",1,"odd","red","no",2,"circle",359986.9871,360080.0401,360080.0816,NA,365746.9898,NA,NA,101766.4254,1628.69299999966,NA,101766.4474,521954.3121,525629.716500001,NA,NA,NA,NA,1628.77469999967,417361.8339,NA,NA,521954.3264,417850.9733,521954.2611,"New experiment",19,"[0]","dist_present",56,36,"yes","yes",1680,NA,NA,NA,NA,"NR","NR","lp",NA,NA,NA,NA,NA,NA,"practice",4,"NR","in"
"34",1157.88819999935,46303.7780999997,46303.7780999997,27,27,"n",3,"['3']","y","#000000","no",526180.6239,1,"neutral","psycho","psycho","psycho",0,"uniform",1,0,0,0,NA,0,0,NA,0,0,0,0,33,33,NA,NA,NA,NA,0,0,0,NA,33,0,33,73.2296414732588,"Tue Jul 20 15:06:03 2021","The main experiment item","yes","red","no","None","circle",NA,"pinging_target_expectations 3.2.osexp","C:\Users\etp-cp-ping\Desktop\LocalPC-EXP",75,"no","mono","no",18,"no","white","no","yes",1050,NA,100,"psycho",33,0,33,"C:/Users/etp-cp-ping/Desktop/LocalPC-EXP/subject-1.csv","psycho",22,34,34,"Lentiform Loewenfeld","3.3.8","['vert', 'hori', 'vert', 'hori', 'vert', 'vert', 'hori', 'hori']","no",209,"None","yes",0,NA,2,"legacy",NA,1024,2,48000,-16,"experiment",1,"odd","green","no",4,"diamond",359986.9871,360080.0401,360080.0816,NA,365746.9898,NA,NA,101766.4254,1628.69299999966,NA,101766.4474,525660.1524,528611.936,NA,NA,NA,NA,1628.77469999967,417361.8339,NA,NA,525660.1666,417850.9733,525660.1019,"New experiment",19,"[0]","dist_absent",56,59,"yes","yes",1680,NA,NA,NA,NA,"NR","NR","lp",NA,NA,NA,NA,NA,NA,"practice",2,"NR","in"
"35",1840.99130000046,48144.7694000002,48144.7694000002,28,28,"n",3,"['3']","y","#000000","no",526180.6239,1,"neutral","psycho","psycho","psycho",0,"uniform",1,0,0,0,NA,0,0,NA,0,0,0,0,34,34,NA,NA,NA,NA,0,0,0,NA,34,0,34,73.2296414732588,"Tue Jul 20 15:06:03 2021","The main experiment item","yes","red","no","6","diamond",NA,"pinging_target_expectations 3.2.osexp","C:\Users\etp-cp-ping\Desktop\LocalPC-EXP",75,"no","mono","no",18,"no","white","no","yes",1050,NA,100,"psycho",34,0,34,"C:/Users/etp-cp-ping/Desktop/LocalPC-EXP/subject-1.csv","psycho",22,35,35,"Lentiform Loewenfeld","3.3.8","['vert', 'vert', 'hori', 'vert', 'hori', 'hori', 'hori', 'vert']","no",209,"None","yes",0,NA,2,"legacy",NA,1024,2,48000,-16,"experiment",1,"odd","green","no",7,"circle",359986.9871,360080.0401,360080.0816,NA,365746.9898,NA,NA,101766.4254,1628.69299999966,NA,101766.4474,528642.4351,532579.9598,NA,NA,NA,NA,1628.77469999967,417361.8339,NA,NA,528642.4495,417850.9733,528642.3842,"New experiment",19,"[0]","dist_present",56,87,"yes","yes",1680,NA,NA,NA,NA,"NR","NR","lp",NA,NA,NA,NA,NA,NA,"practice",4,"NR","in"
"36",1966.6852999999,50111.4547000001,50111.4547000001,29,29,"n",3,"['3']","y","#000000","no",533346.695400001,1,"neutral","psycho","psycho","psycho",0,"uniform",1,0,0,0,NA,0,0,NA,0,0,0,0,35,35,NA,NA,NA,NA,0,0,0,NA,35,0,35,73.2296414732588,"Tue Jul 20 15:06:03 2021","The main experiment item","yes","red","no","4","diamond",NA,"pinging_target_expectations 3.2.osexp","C:\Users\etp-cp-ping\Desktop\LocalPC-EXP",75,"no","mono","no",18,"no","white","no","yes",1050,NA,100,"psycho",35,0,35,"C:/Users/etp-cp-ping/Desktop/LocalPC-EXP/subject-1.csv","psycho",23,36,36,"Lentiform Loewenfeld","3.3.8","['vert', 'hori', 'vert', 'vert', 'vert', 'hori', 'hori', 'hori']","no",209,"None","yes",0,NA,2,"legacy",NA,1024,2,48000,-16,"experiment",1,"odd","green","no",3,"circle",359986.9871,360080.0401,360080.0816,NA,365746.9898,NA,NA,101766.4254,1628.69299999966,NA,101766.4474,532610.2394,536403.9306,NA,NA,NA,NA,1628.77469999967,417361.8339,NA,NA,532610.2539,417850.9733,532610.1885,"New experiment",19,"[0, 98.6585920889303, 208.77080734623794, 365.80492227703843, 547.3581757929835, 748.8891334612282, 959.1251221816682, 1180.5715452471595, 1401.7308617837289, 1450.6511323011089]","dist_present",56,45,"yes","no",1680,NA,NA,NA,NA,"NR","NR","lp",NA,"Left",NA,NA,NA,NA,"practice",7,"NR","in"
"37",1047.44899999967,51158.9036999997,51158.9036999997,30,30,"n",3,"['3']","y","#000000","no",537206.7307,1,"neutral","psycho","psycho","psycho",0,"uniform",1,0,0,0,NA,0,0,NA,0,0,0,0,36,36,NA,NA,NA,NA,0,0,0,NA,36,0,36,73.2296414732588,"Tue Jul 20 15:06:03 2021","The main experiment item","yes","red","no","1","circle",NA,"pinging_target_expectations 3.2.osexp","C:\Users\etp-cp-ping\Desktop\LocalPC-EXP",75,"no","mono","no",18,"no","white","no","yes",1050,NA,100,"psycho",36,0,36,"C:/Users/etp-cp-ping/Desktop/LocalPC-EXP/subject-1.csv","psycho",24,37,37,"Lentiform Loewenfeld","3.3.8","['hori', 'vert', 'vert', 'vert', 'hori', 'hori', 'vert', 'hori']","yes",109,"diamond","yes",0,NA,2,"legacy",NA,1024,2,48000,-16,"experiment",1,"odd","green","no",5,"diamond",359986.9871,360080.0401,360080.0816,NA,365746.9898,NA,NA,101766.4254,1628.69299999966,NA,101766.4474,536434.484,539411.9397,NA,NA,NA,NA,1628.77469999967,417361.8339,NA,NA,536434.4983,417850.9733,536434.4333,"New experiment",19,"[0, 99.34631146676222, 191.60843040061334, 317.62302510854397, 468.2100306463459, 638.6442928963836, 821.6990284165981, 1018.8139049885656, 1242.4634493767257, 1297.584549765087]","dist_present",56,62,"yes","no",1680,NA,NA,NA,NA,"NR","NR","lp",NA,NA,NA,NA,NA,NA,"practice",3,"NR","in"
"38",1124.83929999964,52283.7429999994,52283.7429999994,31,31,"n",3,"['3']","y","#000000","no",540082.7996,1,"neutral","psycho","psycho","psycho",0,"uniform",1,0,0,0,NA,0,0,NA,0,0,0,0,37,37,NA,NA,NA,NA,0,0,0,NA,37,0,37,73.2296414732588,"Tue Jul 20 15:06:03 2021","The main experiment item","yes","red","no","0","circle",NA,"pinging_target_expectations 3.2.osexp","C:\Users\etp-cp-ping\Desktop\LocalPC-EXP",75,"no","mono","no",18,"no","white","no","yes",1050,NA,100,"psycho",37,0,37,"C:/Users/etp-cp-ping/Desktop/LocalPC-EXP/subject-1.csv","psycho",25,38,38,"Lentiform Loewenfeld","3.3.8","['hori', 'vert', 'vert', 'vert', 'hori', 'vert', 'hori', 'hori']","no",209,"None","yes",0,NA,2,"legacy",NA,1024,2,48000,-16,"experiment",1,"odd","green","no",6,"diamond",359986.9871,360080.0401,360080.0816,NA,365746.9898,NA,NA,101766.4254,1628.69299999966,NA,101766.4474,539442.5385,542355.8826,NA,NA,NA,NA,1628.77469999967,417361.8339,NA,NA,539442.5531,417850.9733,539442.4863,"New experiment",19,"[0, 134.25261176099937, 241.64376254833647, 362.05692524002154, 503.7733508759041, 662.6355468039623, 844.8959825783027, 1035.3902362624724, 1258.2903881024508, 1315.7909596353097]","dist_present",56,71,"yes","no",1680,NA,NA,NA,NA,"NR","NR","lp",NA,"Right",NA,"Right",NA,NA,"practice",5,"NR","in"
"39",1305.17049999977,53588.9134999992,53588.9134999992,32,32,"n",3,"['3']","y","#000000","no",540082.7996,1,"neutral","psycho","psycho","psycho",0,"uniform",1,0,0,0,NA,0,0,NA,0,0,0,0,38,38,NA,NA,NA,NA,0,0,0,NA,38,0,38,73.2296414732588,"Tue Jul 20 15:06:03 2021","The main experiment item","yes","red","no","7","diamond",NA,"pinging_target_expectations 3.2.osexp","C:\Users\etp-cp-ping\Desktop\LocalPC-EXP",75,"no","mono","no",18,"no","white","no","yes",1050,NA,100,"psycho",38,0,38,"C:/Users/etp-cp-ping/Desktop/LocalPC-EXP/subject-1.csv","psycho",25,39,39,"Lentiform Loewenfeld","3.3.8","['hori', 'hori', 'hori', 'vert', 'vert', 'hori', 'vert', 'vert']","yes",109,"circles","yes",0,NA,2,"legacy",NA,1024,2,48000,-16,"experiment",1,"odd","green","no",5,"circle",359986.9871,360080.0401,360080.0816,NA,365746.9898,NA,NA,101766.4254,1628.69299999966,NA,101766.4474,542386.2877,545731.9776,NA,NA,NA,NA,1628.77469999967,417361.8339,NA,NA,542386.3018,417850.9733,542386.2367,"New experiment",19,"[0]","dist_present",56,68,"yes","yes",1680,NA,NA,NA,NA,"NR","NR","lp",NA,NA,NA,NA,NA,NA,"practice",6,"NR","in"
"40",850.006599999615,54438.9200999988,54438.9200999988,33,33,"n",3,"['3']","y","#000000","no",546842.8821,1,"neutral","psycho","psycho","psycho",0,"uniform",1,0,0,0,NA,0,0,NA,0,0,0,0,39,39,NA,NA,NA,NA,0,0,0,NA,39,0,39,73.2296414732588,"Tue Jul 20 15:06:03 2021","The main experiment item","yes","red","no","7","circle",NA,"pinging_target_expectations 3.2.osexp","C:\Users\etp-cp-ping\Desktop\LocalPC-EXP",75,"no","mono","no",18,"no","white","no","yes",1050,NA,100,"psycho",39,0,39,"C:/Users/etp-cp-ping/Desktop/LocalPC-EXP/subject-1.csv","psycho",26,40,40,"Lentiform Loewenfeld","3.3.8","['vert', 'vert', 'vert', 'hori', 'vert', 'hori', 'hori', 'hori']","no",209,"None","yes",0,NA,2,"legacy",NA,1024,2,48000,-16,"experiment",1,"odd","green","no",3,"diamond",359986.9871,360080.0401,360080.0816,NA,365746.9898,NA,NA,101766.4254,1628.69299999966,NA,101766.4474,545762.4065,548467.9373,NA,NA,NA,NA,1628.77469999967,417361.8339,NA,NA,545762.4209,417850.9733,545762.3554,"New experiment",19,"[0, 97.40060252917932, 205.5137113473408, 351.12553242258423, 516.5473807716328, 707.1787086285195, 923.5983692496793, 1165.847678939356, 1357.4605117648828]","dist_present",56,48,"yes","no",1680,NA,NA,NA,NA,"NR","R","lp",NA,NA,NA,NA,NA,NA,"practice",5,"NR","in"
"41",1095.97479999962,55534.8948999984,55534.8948999984,34,34,"n",3,"['3']","y","#000000","no",549648.9188,1,"neutral","psycho","psycho","psycho",0,"uniform",1,0,0,0,NA,0,0,NA,0,0,0,0,40,40,NA,NA,NA,NA,0,0,0,NA,40,0,40,73.2296414732588,"Tue Jul 20 15:06:03 2021","The main experiment item","yes","red","no","3","circle",NA,"pinging_target_expectations 3.2.osexp","C:\Users\etp-cp-ping\Desktop\LocalPC-EXP",75,"no","mono","no",18,"no","white","no","yes",1050,NA,100,"psycho",40,0,40,"C:/Users/etp-cp-ping/Desktop/LocalPC-EXP/subject-1.csv","psycho",27,41,41,"Lentiform Loewenfeld","3.3.8","['hori', 'hori', 'hori', 'hori', 'vert', 'vert', 'vert', 'vert']","no",209,"None","yes",0,NA,2,"legacy",NA,1024,2,48000,-16,"experiment",1,"odd","green","no",1,"diamond",359986.9871,360080.0401,360080.0816,NA,365746.9898,NA,NA,101766.4254,1628.69299999966,NA,101766.4474,548498.5752,551443.9973,NA,NA,NA,NA,1628.77469999967,417361.8339,NA,NA,548498.5895,417850.9733,548498.5247,"New experiment",19,"[0, 83.05568259386926, 140.22361461154523, 209.79890935885547, 296.76360946852276, 400.9824110021613, 519.3983276387276, 651.1712556123333, 786.3006680470838, 939.3672073108053, 1108.0856548707218, 1238.778330280388, 77.72959958635846, 80.03730576250888, 84.83613719011774, 86.63635998858048, 87.75988164402126, 89.61878896986993, 91.94200757188172, 92.46026655333645, 91.99924497211643, 91.39590411535463, 88.30728905251812, 87.0788875600263, 87.19273079487435, 86.90604698291888, 86.68431453823422, 85.85712939227129, 84.71150686023357, 87.53586314434833, 89.2101271692375, 89.39002922149119, 90.49337889334966, 91.44462840143862, 89.02409446060881, 91.06507753221018, 90.30446689241569, 90.11115322369017, 91.17483767680297, 89.96338765389318, 89.79453671155491, 89.54693300415131, 90.40114935760725, 89.27811376076437, 88.08552066835986, 86.79586384143603, 87.84218804196534, 87.32038459976329, 86.58912992908115, 86.2988381600447, 86.1053275592302, 85.95813502259833, 87.04813881801256, 86.71112988057905, 86.42090076968871, 86.8585569814456, 86.59406784214215, 86.43985462746778, 87.87293787310155, 88.05679985100527, 87.5219369264616, 87.08369493249776, 85.91763813090031, 86.15618356397144, 86.0058225568017, 85.86180757473022, 86.80696097733914, 86.54852387455274, 85.99376420944982, 85.83936769279688]","dist_present",56,24,"yes","yes",1680,NA,NA,NA,NA,"NR","NR","lp",NA,NA,NA,NA,NA,NA,"practice",3,"NR","in"
"42",1020.05259999994,56554.9474999983,56554.9474999983,35,35,"n",3,"['3']","y","#000000","no",549648.9188,1,"neutral","psycho","psycho","psycho",0,"uniform",1,0,0,0,NA,0,0,NA,0,0,0,0,41,41,NA,NA,NA,NA,0,0,0,NA,41,0,41,73.2296414732588,"Tue Jul 20 15:06:03 2021","The main experiment item","yes","green","no","2","diamond",NA,"pinging_target_expectations 3.2.osexp","C:\Users\etp-cp-ping\Desktop\LocalPC-EXP",75,"no","mono","no",18,"no","white","no","yes",1050,NA,100,"psycho",41,0,41,"C:/Users/etp-cp-ping/Desktop/LocalPC-EXP/subject-1.csv","psycho",27,42,42,"Lentiform Loewenfeld","3.3.8","['hori', 'vert', 'hori', 'vert', 'hori', 'hori', 'vert', 'vert']","yes",109,"diamond","yes",0,NA,2,"legacy",NA,1024,2,48000,-16,"experiment",1,"odd","red","no",6,"circle",359986.9871,360080.0401,360080.0816,NA,365746.9898,NA,NA,101766.4254,1628.69299999966,NA,101766.4474,551474.5347,554531.9698,NA,NA,NA,NA,1628.77469999967,417361.8339,NA,NA,551474.5491,417850.9733,551474.4828,"New experiment",19,"[0]","dist_present",56,73,"yes","yes",1680,NA,NA,NA,NA,"NR","NR","lp",NA,NA,NA,NA,NA,NA,"practice",1,"NR","in"
"43",2000.17300000042,58555.1204999987,58555.1204999987,35,35,"n",3,"['3']","y","#000000","no",555106.9916,1,"neutral","psycho","psycho","psycho",0,"uniform",0,0,0,0,NA,0,0,NA,0,0,0,0,42,42,NA,NA,NA,NA,0,0,0,NA,42,0,42,73.2296414732588,"Tue Jul 20 15:06:03 2021","The main experiment item","yes","green","no","2","circle",NA,"pinging_target_expectations 3.2.osexp","C:\Users\etp-cp-ping\Desktop\LocalPC-EXP",75,"no","mono","no",18,"no","white","no","yes",1050,NA,100,"psycho",42,0,42,"C:/Users/etp-cp-ping/Desktop/LocalPC-EXP/subject-1.csv","psycho",28,43,43,"Lentiform Loewenfeld","3.3.8","['hori', 'vert', 'vert', 'hori', 'vert', 'hori', 'hori', 'vert']","yes",109,"circles","yes",0,NA,2,"legacy",NA,1024,2,48000,-16,"experiment",1,"odd","red","no",1,"diamond",359986.9871,360080.0401,360080.0816,NA,365746.9898,NA,NA,101766.4254,1628.69299999966,NA,101766.4474,554562.5523,558497.589000001,NA,NA,NA,NA,1628.77469999967,417361.8339,NA,NA,554562.5665,417850.9733,554562.5008,"New experiment",19,"[0, 76.10780045461705, 164.180268282048, 277.11226774639124, 403.0228641508085, 542.4017662559723, 699.5840114749129, 876.7331406990385, 1067.651644511599, 1269.931642168685, 1317.8266262248278]","dist_present",56,23,"yes","no",1680,NA,NA,NA,NA,"NR","R","lp",NA,NA,NA,NA,NA,NA,"practice",6,"NR","in"
"44",1321.59640000004,59876.7168999988,59876.7168999988,36,36,"n",3,"['3']","y","#000000","no",559463.0621,1,"neutral","psycho","psycho","psycho",0,"uniform",1,0,0,0,NA,0,0,NA,0,0,0,0,43,43,NA,NA,NA,NA,0,0,0,NA,43,0,43,73.2296414732588,"Tue Jul 20 15:06:03 2021","The main experiment item","yes","red","no","6","circle",NA,"pinging_target_expectations 3.2.osexp","C:\Users\etp-cp-ping\Desktop\LocalPC-EXP",75,"no","mono","no",18,"no","white","no","yes",1050,NA,100,"psycho",43,0,43,"C:/Users/etp-cp-ping/Desktop/LocalPC-EXP/subject-1.csv","psycho",30,44,44,"Lentiform Loewenfeld","3.3.8","['vert', 'vert', 'hori', 'hori', 'hori', 'hori', 'vert', 'vert']","no",209,"None","yes",0,NA,2,"legacy",NA,1024,2,48000,-16,"experiment",1,"odd","green","no",0,"diamond",359986.9871,360080.0401,360080.0816,NA,365746.9898,NA,NA,101766.4254,1628.69299999966,NA,101766.4474,558527.9203,561587.91,NA,NA,NA,NA,1628.77469999967,417361.8339,NA,NA,558527.9345,417850.9733,558527.8711,"New experiment",19,"[0, 119.73523849070531, 233.5123812504742, 373.93982114622185, 535.9059875484087, 714.1210850556765, 907.3361936840948, 1110.4739398205213, 1329.3618355215453, 1382.818321597916, 922.5480062855104, 1089.49473121073, 1274.9822146028987, 1393.9271946463389]","dist_present",56,17,"yes","no",1680,NA,NA,NA,NA,"NR","NR","lp","Right",NA,"Right",NA,NA,NA,"practice",1,"NR","in"
"45",1250.6436000003,61127.3604999991,61127.3604999991,37,37,"n",3,"['3']","y","#000000","no",562069.097000001,1,"neutral","psycho","psycho","psycho",0,"uniform",1,0,0,0,NA,0,0,NA,0,0,0,0,44,44,NA,NA,NA,NA,0,0,0,NA,44,0,44,73.2296414732588,"Tue Jul 20 15:06:03 2021","The main experiment item","yes","green","no","0","circle",NA,"pinging_target_expectations 3.2.osexp","C:\Users\etp-cp-ping\Desktop\LocalPC-EXP",75,"no","mono","no",18,"no","white","no","yes",1050,NA,100,"psycho",44,0,44,"C:/Users/etp-cp-ping/Desktop/LocalPC-EXP/subject-1.csv","psycho",31,45,45,"Lentiform Loewenfeld","3.3.8","['hori', 'hori', 'hori', 'hori', 'vert', 'vert', 'vert', 'vert']","no",209,"None","yes",0,NA,2,"legacy",NA,1024,2,48000,-16,"experiment",1,"odd","red","no",1,"diamond",359986.9871,360080.0401,360080.0816,NA,365746.9898,NA,NA,101766.4254,1628.69299999966,NA,101766.4474,561618.3902,564723.9264,NA,NA,NA,NA,1628.77469999967,417361.8339,NA,NA,561618.4046,417850.9733,561618.3397,"New experiment",19,"[0]","dist_present",56,21,"yes","yes",1680,NA,NA,NA,NA,"NR","NR","lp",NA,"Left",NA,NA,NA,NA,"practice",0,"NR","in"
"46",1164.59240000031,62291.9528999994,62291.9528999994,38,38,"n",3,"['3']","y","#000000","no",565243.1313,1,"neutral","psycho","psycho","psycho",0,"uniform",1,0,0,0,NA,0,0,NA,0,0,0,0,45,45,NA,NA,NA,NA,0,0,0,NA,45,0,45,73.2296414732588,"Tue Jul 20 15:06:03 2021","The main experiment item","yes","red","no","None","diamond",NA,"pinging_target_expectations 3.2.osexp","C:\Users\etp-cp-ping\Desktop\LocalPC-EXP",75,"no","mono","no",18,"no","white","no","yes",1050,NA,100,"psycho",45,0,45,"C:/Users/etp-cp-ping/Desktop/LocalPC-EXP/subject-1.csv","psycho",32,46,46,"Lentiform Loewenfeld","3.3.8","['vert', 'hori', 'vert', 'vert', 'vert', 'hori', 'hori', 'hori']","yes",109,"circles","yes",0,NA,2,"legacy",NA,1024,2,48000,-16,"experiment",1,"odd","green","no",1,"circle",359986.9871,360080.0401,360080.0816,NA,365746.9898,NA,NA,101766.4254,1628.69299999966,NA,101766.4474,564754.3549,567779.9701,NA,NA,NA,NA,1628.77469999967,417361.8339,NA,NA,564754.369400001,417850.9733,564754.3034,"New experiment",19,"[0]","dist_absent",56,29,"yes","yes",1680,NA,NA,NA,NA,"R","NR","lp",NA,"Left",NA,NA,NA,NA,"practice",1,"NR","in"
"47",988.193800000823,63280.1467000002,63280.1467000002,39,39,"n",3,"['3']","y","#000000","no",565243.1313,1,"neutral","psycho","psycho","psycho",0,"uniform",1,0,0,0,NA,0,0,NA,0,0,0,0,46,46,NA,NA,NA,NA,0,0,0,NA,46,0,46,73.2296414732588,"Tue Jul 20 15:06:03 2021","The main experiment item","yes","red","no","0","circle",NA,"pinging_target_expectations 3.2.osexp","C:\Users\etp-cp-ping\Desktop\LocalPC-EXP",75,"no","mono","no",18,"no","white","no","yes",1050,NA,100,"psycho",46,0,46,"C:/Users/etp-cp-ping/Desktop/LocalPC-EXP/subject-1.csv","psycho",32,47,47,"Lentiform Loewenfeld","3.3.8","['vert', 'vert', 'hori', 'hori', 'hori', 'vert', 'hori', 'vert']","no",209,"None","yes",0,NA,2,"legacy",NA,1024,2,48000,-16,"experiment",1,"odd","green","no",4,"diamond",359986.9871,360080.0401,360080.0816,NA,365746.9898,NA,NA,101766.4254,1628.69299999966,NA,101766.4474,567811.9319,570691.9249,NA,NA,NA,NA,1628.77469999967,417361.8339,NA,NA,567811.9463,417850.9733,567811.8808,"New experiment",19,"[0]","dist_present",56,51,"yes","yes",1680,NA,NA,NA,NA,"NR","NR","lp",NA,NA,NA,NA,NA,NA,"practice",1,"R","in"
"48",1459.78339999961,64739.9300999998,64739.9300999998,40,40,"n",3,"['3']","y","#000000","no",571091.2554,1,"neutral","psycho","psycho","psycho",0,"uniform",1,0,0,0,NA,0,0,NA,0,0,0,0,47,47,NA,NA,NA,NA,0,0,0,NA,47,0,47,73.2296414732588,"Tue Jul 20 15:06:03 2021","The main experiment item","yes","red","no","4","circle",NA,"pinging_target_expectations 3.2.osexp","C:\Users\etp-cp-ping\Desktop\LocalPC-EXP",75,"no","mono","no",18,"no","white","no","yes",1050,NA,100,"psycho",47,0,47,"C:/Users/etp-cp-ping/Desktop/LocalPC-EXP/subject-1.csv","psycho",33,48,48,"Lentiform Loewenfeld","3.3.8","['vert', 'hori', 'hori', 'hori', 'vert', 'hori', 'vert', 'vert']","no",209,"None","yes",0,NA,2,"legacy",NA,1024,2,48000,-16,"experiment",1,"odd","green","no",3,"diamond",359986.9871,360080.0401,360080.0816,NA,365746.9898,NA,NA,101766.4254,1628.69299999966,NA,101766.4474,570722.3949,573939.9665,NA,NA,NA,NA,1628.77469999967,417361.8339,NA,NA,570722.4093,417850.9733,570722.3439,"New experiment",19,"[0, 295.57052962187777, 408.59723764047044, 534.533441053498, 673.0704676908204, 831.8467719401845, 1003.0566414841156, 1192.015691924786, 1342.5515538449347]","dist_present",56,45,"yes","no",1680,NA,NA,NA,NA,"NR","NR","lp",NA,"Left",NA,NA,NA,NA,"practice",4,"NR","in"
"49",967.212900000042,65707.1429999999,65707.1429999999,41,41,"n",3,"['3']","y","#000000","no",574367.282,1,"neutral","psycho","psycho","psycho",0,"uniform",1,0,0,0,NA,0,0,NA,0,0,0,0,48,48,NA,NA,NA,NA,0,0,0,NA,48,0,48,73.2296414732588,"Tue Jul 20 15:06:03 2021","The main experiment item","yes","green","no","3","circle",NA,"pinging_target_expectations 3.2.osexp","C:\Users\etp-cp-ping\Desktop\LocalPC-EXP",75,"no","mono","no",18,"no","white","no","yes",1050,NA,100,"psycho",48,0,48,"C:/Users/etp-cp-ping/Desktop/LocalPC-EXP/subject-1.csv","psycho",34,49,49,"Lentiform Loewenfeld","3.3.8","['hori', 'vert', 'vert', 'vert', 'vert', 'hori', 'hori', 'hori']","yes",109,"circles","yes",0,NA,2,"legacy",NA,1024,2,48000,-16,"experiment",1,"odd","red","no",0,"diamond",359986.9871,360080.0401,360080.0816,NA,365746.9898,NA,NA,101766.4254,1628.69299999966,NA,101766.4474,573970.5079,576947.8618,NA,NA,NA,NA,1628.77469999967,417361.8339,NA,NA,573970.5223,417850.9733,573970.4566,"New experiment",19,"[0]","dist_present",56,14,"yes","yes",1680,NA,NA,NA,NA,"NR","NR","lp","Left",NA,NA,NA,NA,NA,"practice",3,"NR","in"
"50",728.720699999947,66435.8636999998,66435.8636999998,41,41,"n",3,"['3']","y","#000000","no",577549.2836,1,"neutral","psycho","psycho","psycho",0,"uniform",0,0,0,0,NA,0,0,NA,0,0,0,0,49,49,NA,NA,NA,NA,0,0,0,NA,49,0,49,73.2296414732588,"Tue Jul 20 15:06:03 2021","The main experiment item","yes","green","no","5","diamond",NA,"pinging_target_expectations 3.2.osexp","C:\Users\etp-cp-ping\Desktop\LocalPC-EXP",75,"no","mono","no",18,"no","white","no","yes",1050,NA,100,"psycho",49,0,49,"C:/Users/etp-cp-ping/Desktop/LocalPC-EXP/subject-1.csv","psycho",35,50,50,"Lentiform Loewenfeld","3.3.8","['vert', 'vert', 'hori', 'hori', 'vert', 'hori', 'hori', 'vert']","no",209,"None","yes",0,NA,2,"legacy",NA,1024,2,48000,-16,"experiment",1,"odd","red","no",7,"circle",359986.9871,360080.0401,360080.0816,NA,365746.9898,NA,NA,101766.4254,1628.69299999966,NA,101766.4474,576978.5389,579667.9265,NA,NA,NA,NA,1628.77469999967,417361.8339,NA,NA,576978.553200001,417850.9733,576978.4885,"New experiment",19,"[0]","dist_present",56,86,"yes","no",1680,NA,NA,NA,NA,"NR","NR","lp",NA,NA,NA,NA,NA,NA,"practice",0,"NR","in"
"51",1570.35129999986,68006.2149999997,68006.2149999997,42,42,"n",3,"['3']","y","#000000","no",580859.371000001,1,"neutral","psycho","psycho","psycho",0,"uniform",1,0,0,0,NA,0,0,NA,0,0,0,0,50,50,NA,NA,NA,NA,0,0,0,NA,50,0,50,73.2296414732588,"Tue Jul 20 15:06:03 2021","The main experiment item","yes","red","no","3","circle",NA,"pinging_target_expectations 3.2.osexp","C:\Users\etp-cp-ping\Desktop\LocalPC-EXP",75,"no","mono","no",18,"no","white","no","yes",1050,NA,100,"psycho",50,0,50,"C:/Users/etp-cp-ping/Desktop/LocalPC-EXP/subject-1.csv","psycho",36,51,51,"Lentiform Loewenfeld","3.3.8","['vert', 'vert', 'hori', 'hori', 'vert', 'vert', 'hori', 'hori']","yes",109,"diamond","yes",0,NA,2,"legacy",NA,1024,2,48000,-16,"experiment",1,"odd","green","no",7,"diamond",359986.9871,360080.0401,360080.0816,NA,365746.9898,NA,NA,101766.4254,1628.69299999966,NA,101766.4474,579698.4746,583235.8838,NA,NA,NA,NA,1628.77469999967,417361.8339,NA,NA,579698.4892,417850.9733,579698.4228,"New experiment",19,"[0]","dist_present",56,84,"yes","yes",1680,NA,NA,NA,NA,"R","NR","lp",NA,NA,NA,NA,NA,NA,"practice",7,"NR","in"
"52",1848.87719999999,69855.0921999997,69855.0921999997,43,43,"n",3,"['3']","y","#000000","no",583731.3782,1,"neutral","psycho","psycho","psycho",0,"uniform",1,0,0,0,NA,0,0,NA,0,0,0,0,51,51,NA,NA,NA,NA,0,0,0,NA,51,0,51,73.2296414732588,"Tue Jul 20 15:06:03 2021","The main experiment item","yes","red","no","2","circle",NA,"pinging_target_expectations 3.2.osexp","C:\Users\etp-cp-ping\Desktop\LocalPC-EXP",75,"no","mono","no",18,"no","white","no","yes",1050,NA,100,"psycho",51,0,51,"C:/Users/etp-cp-ping/Desktop/LocalPC-EXP/subject-1.csv","psycho",37,52,52,"Lentiform Loewenfeld","3.3.8","['vert', 'hori', 'vert', 'hori', 'vert', 'hori', 'hori', 'vert']","yes",109,"diamond","yes",0,NA,2,"legacy",NA,1024,2,48000,-16,"experiment",1,"odd","green","no",3,"diamond",359986.9871,360080.0401,360080.0816,NA,365746.9898,NA,NA,101766.4254,1628.69299999966,NA,101766.4474,583267.4891,587075.9067,NA,NA,NA,NA,1628.77469999967,417361.8339,NA,NA,583267.5035,417850.9733,583267.4381,"New experiment",19,"[0]","dist_present",56,43,"yes","yes",1680,NA,NA,NA,NA,"NR","NR","lp",NA,NA,NA,NA,NA,NA,"practice",7,"R","in"
"53",1874.94830000005,71730.0404999997,71730.0404999997,44,44,"n",3,"['3']","y","#000000","no",587607.4531,1,"neutral","psycho","psycho","psycho",0,"uniform",1,0,0,0,NA,0,0,NA,0,0,0,0,52,52,NA,NA,NA,NA,0,0,0,NA,52,0,52,73.2296414732588,"Tue Jul 20 15:06:03 2021","The main experiment item","yes","red","no","1","diamond",NA,"pinging_target_expectations 3.2.osexp","C:\Users\etp-cp-ping\Desktop\LocalPC-EXP",75,"no","mono","no",18,"no","white","no","yes",1050,NA,100,"psycho",52,0,52,"C:/Users/etp-cp-ping/Desktop/LocalPC-EXP/subject-1.csv","psycho",38,53,53,"Lentiform Loewenfeld","3.3.8","['hori', 'hori', 'vert', 'vert', 'hori', 'vert', 'hori', 'vert']","yes",109,"circles","yes",0,NA,2,"legacy",NA,1024,2,48000,-16,"experiment",1,"odd","green","no",4,"circle",359986.9871,360080.0401,360080.0816,NA,365746.9898,NA,NA,101766.4254,1628.69299999966,NA,101766.4474,587106.6043,590787.9526,NA,NA,NA,NA,1628.77469999967,417361.8339,NA,NA,587106.6189,417850.9733,587106.5549,"New experiment",19,"[0]","dist_present",56,52,"yes","no",1680,NA,NA,NA,NA,"NR","NR","lp","Left",NA,NA,NA,NA,NA,"practice",3,"NR","in"
"54",2000.84630000044,73730.8868000002,73730.8868000002,44,44,"n",3,"['3']","y","#000000","no",591359.5013,1,"neutral","psycho","psycho","psycho",0,"uniform",0,0,0,0,NA,0,0,NA,0,0,0,0,53,53,NA,NA,NA,NA,0,0,0,NA,53,0,53,73.2296414732588,"Tue Jul 20 15:06:03 2021","The main experiment item","yes","red","no","2","diamond",NA,"pinging_target_expectations 3.2.osexp","C:\Users\etp-cp-ping\Desktop\LocalPC-EXP",75,"no","mono","no",18,"no","white","no","yes",1050,NA,100,"psycho",53,0,53,"C:/Users/etp-cp-ping/Desktop/LocalPC-EXP/subject-1.csv","psycho",39,54,54,"Lentiform Loewenfeld","3.3.8","['vert', 'hori', 'hori', 'vert', 'hori', 'hori', 'vert', 'vert']","no",209,"None","yes",0,NA,2,"legacy",NA,1024,2,48000,-16,"experiment",1,"odd","green","no",0,"circle",359986.9871,360080.0401,360080.0816,NA,365746.9898,NA,NA,101766.4254,1628.69299999966,NA,101766.4474,590819.8737,594865.8073,NA,NA,NA,NA,1628.77469999967,417361.8339,NA,NA,590819.8883,417850.9733,590819.8226,"New experiment",19,"[0]","dist_present",56,13,"yes","yes",1680,NA,NA,NA,NA,"NR","NR","lp","Left",NA,"Left",NA,NA,NA,"practice",4,"NR","in"
"55",1295.65860000008,75026.5454000002,75026.5454000002,45,45,"n",3,"['3']","y","#000000","no",595681.5986,1,"neutral","psycho","psycho","psycho",0,"uniform",1,0,0,0,NA,0,0,NA,0,0,0,0,54,54,NA,NA,NA,NA,0,0,0,NA,54,0,54,73.2296414732588,"Tue Jul 20 15:06:03 2021","The main experiment item","yes","red","no","None","diamond",NA,"pinging_target_expectations 3.2.osexp","C:\Users\etp-cp-ping\Desktop\LocalPC-EXP",75,"no","mono","no",18,"no","white","no","yes",1050,NA,100,"psycho",54,0,54,"C:/Users/etp-cp-ping/Desktop/LocalPC-EXP/subject-1.csv","psycho",40,55,55,"Lentiform Loewenfeld","3.3.8","['vert', 'hori', 'vert', 'hori', 'vert', 'vert', 'hori', 'hori']","yes",109,"diamond","yes",0,NA,2,"legacy",NA,1024,2,48000,-16,"experiment",1,"odd","green","no",7,"circle",359986.9871,360080.0401,360080.0816,NA,365746.9898,NA,NA,101766.4254,1628.69299999966,NA,101766.4474,594896.1868,598067.9791,NA,NA,NA,NA,1628.77469999967,417361.8339,NA,NA,594896.2009,417850.9733,594896.138,"New experiment",19,"[0]","dist_absent",56,89,"yes","yes",1680,NA,NA,NA,NA,"NR","NR","lp",NA,"Right",NA,NA,NA,NA,"practice",0,"NR","in"
"56",806.727299999679,75833.2726999999,75833.2726999999,46,46,"n",3,"['3']","y","#000000","no",598827.6151,1,"neutral","psycho","psycho","psycho",0,"uniform",1,0,0,0,NA,0,0,NA,0,0,0,0,55,55,NA,NA,NA,NA,0,0,0,NA,55,0,55,73.2296414732588,"Tue Jul 20 15:06:03 2021","The main experiment item","yes","green","no","None","diamond",NA,"pinging_target_expectations 3.2.osexp","C:\Users\etp-cp-ping\Desktop\LocalPC-EXP",75,"no","mono","no",18,"no","white","no","yes",1050,NA,100,"psycho",55,0,55,"C:/Users/etp-cp-ping/Desktop/LocalPC-EXP/subject-1.csv","psycho",41,56,56,"Lentiform Loewenfeld","3.3.8","['vert', 'vert', 'hori', 'hori', 'hori', 'vert', 'vert', 'hori']","no",209,"None","yes",0,NA,2,"legacy",NA,1024,2,48000,-16,"experiment",1,"odd","red","no",3,"circle",359986.9871,360080.0401,360080.0816,NA,365746.9898,NA,NA,101766.4254,1628.69299999966,NA,101766.4474,598098.5976,600691.926,NA,NA,NA,NA,1628.77469999967,417361.8339,NA,NA,598098.6122,417850.9733,598098.5473,"New experiment",19,"[0, 98.28537282688276, 150.73186290439608, 215.6842666794849, 290.20670455244255, 366.4611637221641, 446.7080363899796, 530.8479850967248, 621.4122580290094, 714.8440505361394, 815.5811434479417, 922.2595977249053, 1042.9100641869493, 1177.6277892814417, 1310.0371721135766, 1338.1160230315436]","dist_absent",56,49,"yes","no",1680,NA,NA,NA,NA,"NR","R","lp",NA,"Left",NA,NA,NA,NA,"practice",7,"NR","in"
"57",1128.91310000035,1128.91310000035,76962.1858000003,1,47,"n",3,"['3']","y","#000000","no",709589.2019,2,"bias","psycho","psycho","psycho",0,"uniform",1,0,1,1,NA,1,0,NA,0,0,1,0,56,56,NA,NA,NA,NA,0,1,1,NA,56,1,56,73.2296414732588,"Tue Jul 20 15:06:03 2021","The main experiment item","yes","green","no","7","diamond",NA,"pinging_target_expectations 3.2.osexp","C:\Users\etp-cp-ping\Desktop\LocalPC-EXP",75,"no","mono","no",18,"no","white","no","yes",1050,NA,0,"psycho",0,1,0,"C:/Users/etp-cp-ping/Desktop/LocalPC-EXP/subject-1.csv","psycho",1,57,1,"Lentiform Loewenfeld","3.3.8","['vert', 'hori', 'vert', 'hori', 'hori', 'vert', 'vert', 'hori']","no",200,"None","no",0,NA,2,"legacy",NA,1024,2,48000,-16,"experiment",1,"odd","red","no",5,"circle",359986.9871,652185.2181,652185.2675,NA,657095.8791,NA,NA,101766.4254,1628.69299999966,601234.6778,101766.4474,708216.5009,711187.8476,NA,NA,NA,NA,1628.77469999967,707725.8431,600721.6906,NA,708216.5178,708212.184,708216.421,"New experiment",19,"[0, 105.84070515715898, 199.1513381962869, 320.8925594029511, 458.1656813824895, 602.6198974606057, 765.8029280974448, 931.3514850218183, 1110.8756941470456, 1250.0121047148284]","dist_present",56,68,"yes","no",1680,-35.9699122218988,-23.4413316785208,"more toward","True","NR","NR","lp",NA,NA,NA,NA,3,1,"first",999,"NR","in"
"58",766.210799999419,1895.12389999977,77728.3965999997,2,48,"n",3,"['3']","y","#000000","no",709589.2019,2,"bias","psycho","psycho","psycho",0,"uniform",1,0,1,1,NA,1,0,NA,0,0,1,0,57,57,NA,NA,NA,NA,0,1,1,NA,57,1,57,73.2296414732588,"Tue Jul 20 15:06:03 2021","The main experiment item","yes","green","no","None","circle",NA,"pinging_target_expectations 3.2.osexp","C:\Users\etp-cp-ping\Desktop\LocalPC-EXP",75,"no","mono","no",18,"no","white","no","yes",1050,NA,0,"psycho",1,1,1,"C:/Users/etp-cp-ping/Desktop/LocalPC-EXP/subject-1.csv","psycho",1,58,2,"Lentiform Loewenfeld","3.3.8","['vert', 'vert', 'hori', 'hori', 'hori', 'vert', 'vert', 'hori']","yes",100,"diamond","no",0,NA,2,"legacy",NA,1024,2,48000,-16,"experiment",1,"odd","red","no",4,"diamond",359986.9871,652185.2181,652185.2675,NA,657095.8791,NA,NA,101766.4254,1628.69299999966,601234.6778,101766.4474,711221.0876,713971.777700001,NA,NA,NA,NA,1628.77469999967,707725.8431,600721.6906,NA,711221.1017,708212.184,711221.0388,"New experiment",19,"[0]","dist_absent",56,59,"yes","yes",1680,-48.2468629653933,-37.3316272175543,"more toward","False","NR","NR","lp",NA,NA,NA,NA,4,NA,"first",5,"NR","in"
"59",776.286299999803,2671.41019999958,78504.6828999995,3,49,"n",3,"['3']","y","#000000","no",714409.2652,2,"bias","psycho","psycho","psycho",0,"uniform",1,0,1,1,NA,1,0,NA,0,0,1,0,58,58,NA,NA,NA,NA,0,1,1,NA,58,1,58,73.2296414732588,"Tue Jul 20 15:06:03 2021","The main experiment item","yes","red","no","7","circle",NA,"pinging_target_expectations 3.2.osexp","C:\Users\etp-cp-ping\Desktop\LocalPC-EXP",75,"no","mono","no",18,"no","white","no","yes",1050,NA,0,"psycho",2,1,2,"C:/Users/etp-cp-ping/Desktop/LocalPC-EXP/subject-1.csv","psycho",2,59,3,"Lentiform Loewenfeld","3.3.8","['hori', 'vert', 'vert', 'hori', 'hori', 'hori', 'vert', 'vert']","yes",100,"circles","no",0,NA,2,"legacy",NA,1024,2,48000,-16,"experiment",1,"odd","green","yes",0,"diamond",359986.9871,652185.2181,652185.2675,NA,657095.8791,NA,NA,101766.4254,1628.69299999966,601234.6778,101766.4474,714002.2871,716611.888500001,NA,NA,NA,NA,1628.77469999967,707725.8431,600721.6906,NA,714002.3016,708212.184,714002.2375,"New experiment",19,"[0]","dist_present",56,18,"yes","yes",1680,-38.7803629653933,-17.0948772175543,"more away","False","NR","NR","lp","Right",NA,NA,NA,0,1,"first",4,"NR","ex"
"60",1474.52760000038,4145.93779999996,79979.2104999999,4,50,"n",3,"['3']","y","#000000","no",714409.2652,2,"bias","psycho","psycho","psycho",0,"uniform",1,0,1,1,NA,1,0,NA,0,0,1,0,59,59,NA,NA,NA,NA,0,1,1,NA,59,1,59,73.2296414732588,"Tue Jul 20 15:06:03 2021","The main experiment item","yes","green","yes","0","circle",NA,"pinging_target_expectations 3.2.osexp","C:\Users\etp-cp-ping\Desktop\LocalPC-EXP",75,"no","mono","no",18,"no","white","no","yes",1050,NA,0,"psycho",3,1,3,"C:/Users/etp-cp-ping/Desktop/LocalPC-EXP/subject-1.csv","psycho",2,60,4,"Lentiform Loewenfeld","3.3.8","['hori', 'hori', 'hori', 'hori', 'vert', 'vert', 'vert', 'vert']","no",200,"None","no",0,NA,2,"legacy",NA,1024,2,48000,-16,"experiment",1,"odd","red","no",1,"diamond",359986.9871,652185.2181,652185.2675,NA,657095.8791,NA,NA,101766.4254,1628.69299999966,601234.6778,101766.4474,716646.3475,720083.8385,NA,NA,NA,NA,1628.77469999967,707725.8431,600721.6906,NA,716646.3621,708212.184,716646.296,"New experiment",19,"[0]","dist_present",56,21,"yes","yes",1680,-64.9606129653933,-30.1213772175543,"more toward","False","NR","NR","hp",NA,"Left",NA,NA,-1,0,"first",0,"NR","in"
"61",820.952699999907,4966.89049999986,80800.1631999998,5,51,"n",3,"['3']","y","#000000","no",720605.3627,2,"bias","psycho","psycho","psycho",0,"uniform",1,0,1,1,NA,1,0,NA,0,0,1,0,60,60,NA,NA,NA,NA,0,1,1,NA,60,1,60,73.2296414732588,"Tue Jul 20 15:06:03 2021","The main experiment item","yes","red","no","2","diamond",NA,"pinging_target_expectations 3.2.osexp","C:\Users\etp-cp-ping\Desktop\LocalPC-EXP",75,"no","mono","no",18,"no","white","no","yes",1050,NA,0,"psycho",4,1,4,"C:/Users/etp-cp-ping/Desktop/LocalPC-EXP/subject-1.csv","psycho",3,61,5,"Lentiform Loewenfeld","3.3.8","['vert', 'hori', 'hori', 'hori', 'vert', 'vert', 'hori', 'vert']","yes",100,"diamond","no",0,NA,2,"legacy",NA,1024,2,48000,-16,"experiment",1,"odd","green","no",4,"circle",359986.9871,652185.2181,652185.2675,NA,657095.8791,NA,NA,101766.4254,1628.69299999966,601234.6778,101766.4474,720114.6455,722995.7445,NA,NA,NA,NA,1628.77469999967,707725.8431,600721.6906,NA,720114.6599,708212.184,720114.5921,"New experiment",19,"[0]","dist_present",56,53,"yes","no",1680,-35.9566129653932,-19.6268772175543,"more away","False","NR","NR","lp","Left",NA,"Left",NA,4,-2,"first",1,"NR","in"
"62",1801.79060000041,6768.68110000028,82601.9538000002,6,52,"n",3,"['3']","y","#000000","no",723575.392100001,2,"bias","psycho","psycho","psycho",0,"uniform",1,0,1,1,NA,1,0,NA,0,0,1,0,61,61,NA,NA,NA,NA,0,1,1,NA,61,1,61,73.2296414732588,"Tue Jul 20 15:06:03 2021","The main experiment item","yes","red","no","4","diamond",NA,"pinging_target_expectations 3.2.osexp","C:\Users\etp-cp-ping\Desktop\LocalPC-EXP",75,"no","mono","no",18,"no","white","no","yes",1050,NA,0,"psycho",5,1,5,"C:/Users/etp-cp-ping/Desktop/LocalPC-EXP/subject-1.csv","psycho",4,62,6,"Lentiform Loewenfeld","3.3.8","['hori', 'hori', 'hori', 'hori', 'vert', 'vert', 'vert', 'vert']","yes",100,"circles","no",0,NA,2,"legacy",NA,1024,2,48000,-16,"experiment",1,"odd","green","yes",0,"circle",359986.9871,652185.2181,652185.2675,NA,657095.8791,NA,NA,101766.4254,1628.69299999966,601234.6778,101766.4474,723026.4183,726627.8227,NA,NA,NA,NA,1628.77469999967,707725.8431,600721.6906,NA,723026.4329,708212.184,723026.3671,"New experiment",19,"[0, 106.64519713184372, 199.4206118109165, 311.8159463833537, 444.99306595447007, 601.0899770482063, 770.800048828125, 947.220340268081, 1136.9711537793594, 1323.012890107326, 1369.7258734936954]","dist_present",56,15,"yes","no",1680,-51.7536129653933,-19.0748772175543,"more away","False","NR","NR","lp",NA,NA,NA,NA,0,4,"first",4,"NR","ex"
"63",1360.59180000029,8129.27290000056,83962.5456000005,7,53,"n",3,"['3']","y","#000000","no",727149.4689,2,"bias","psycho","psycho","psycho",0,"uniform",1,0,1,1,NA,1,0,NA,0,0,1,0,62,62,NA,NA,NA,NA,0,1,1,NA,62,1,62,73.2296414732588,"Tue Jul 20 15:06:03 2021","The main experiment item","yes","red","no","2","diamond",NA,"pinging_target_expectations 3.2.osexp","C:\Users\etp-cp-ping\Desktop\LocalPC-EXP",75,"no","mono","no",18,"no","white","no","yes",1050,NA,0,"psycho",6,1,6,"C:/Users/etp-cp-ping/Desktop/LocalPC-EXP/subject-1.csv","psycho",5,63,7,"Lentiform Loewenfeld","3.3.8","['hori', 'vert', 'hori', 'hori', 'hori', 'vert', 'vert', 'vert']","no",200,"None","no",0,NA,2,"legacy",NA,1024,2,48000,-16,"experiment",1,"odd","green","no",7,"circle",359986.9871,652185.2181,652185.2675,NA,657095.8791,NA,NA,101766.4254,1628.69299999966,601234.6778,101766.4474,726658.4821,729779.804100001,NA,NA,NA,NA,1628.77469999967,707725.8431,600721.6906,NA,726658.4963,708212.184,726658.4303,"New experiment",19,"[0]","dist_present",56,83,"yes","yes",1680,-35.1373629653933,-24.3396272175543,"more toward","False","NR","NR","hp",NA,NA,NA,NA,1,-2,"first",0,"NR","in"
"64",1222.87599999981,9352.14890000038,85185.4216000003,8,54,"n",3,"['3']","y","#000000","no",727149.4689,2,"bias","psycho","psycho","psycho",0,"uniform",1,0,1,1,NA,1,0,NA,0,0,1,0,63,63,NA,NA,NA,NA,0,1,1,NA,63,1,63,73.2296414732588,"Tue Jul 20 15:06:03 2021","The main experiment item","yes","red","no","6","circle",NA,"pinging_target_expectations 3.2.osexp","C:\Users\etp-cp-ping\Desktop\LocalPC-EXP",75,"no","mono","no",18,"no","white","no","yes",1050,NA,0,"psycho",7,1,7,"C:/Users/etp-cp-ping/Desktop/LocalPC-EXP/subject-1.csv","psycho",5,64,8,"Lentiform Loewenfeld","3.3.8","['vert', 'vert', 'hori', 'hori', 'hori', 'vert', 'hori', 'vert']","no",200,"None","no",0,NA,2,"legacy",NA,1024,2,48000,-16,"experiment",1,"odd","green","no",2,"diamond",359986.9871,652185.2181,652185.2675,NA,657095.8791,NA,NA,101766.4254,1628.69299999966,601234.6778,101766.4474,729810.6076,732819.8298,NA,NA,NA,NA,1628.77469999967,707725.8431,600721.6906,NA,729810.6219,708212.184,729810.5569,"New experiment",19,"[0]","dist_present",56,37,"yes","yes",1680,-39.8906129653933,-24.6003772175543,"more toward","False","NR","NR","lp",NA,NA,NA,NA,-2,2,"first",7,"NR","in"
"65",1201.55570000049,10553.7046000009,86386.9773000008,9,55,"n",3,"['3']","y","#000000","no",733443.5564,2,"bias","psycho","psycho","psycho",0,"uniform",1,0,1,1,NA,1,0,NA,0,0,1,0,64,64,NA,NA,NA,NA,0,1,1,NA,64,1,64,73.2296414732588,"Tue Jul 20 15:06:03 2021","The main experiment item","yes","red","no","4","circle",NA,"pinging_target_expectations 3.2.osexp","C:\Users\etp-cp-ping\Desktop\LocalPC-EXP",75,"no","mono","no",18,"no","white","no","yes",1050,NA,0,"psycho",8,1,8,"C:/Users/etp-cp-ping/Desktop/LocalPC-EXP/subject-1.csv","psycho",6,65,9,"Lentiform Loewenfeld","3.3.8","['vert', 'hori', 'vert', 'hori', 'vert', 'hori', 'hori', 'vert']","yes",100,"circles","no",0,NA,2,"legacy",NA,1024,2,48000,-16,"experiment",1,"odd","green","no",2,"diamond",359986.9871,652185.2181,652185.2675,NA,657095.8791,NA,NA,101766.4254,1628.69299999966,601234.6778,101766.4474,732850.323,735875.7578,NA,NA,NA,NA,1628.77469999967,707725.8431,600721.6906,NA,732850.3372,708212.184,732850.2734,"New experiment",19,"[0, 129.56066028075037, 232.50776527481116, 356.87244163993796, 503.9808917004901, 672.2374461518727, 846.9114543843317, 1024.771764185507, 1217.7640217779547, 1359.3398183405334]","dist_present",56,35,"yes","no",1680,-12.0823629653933,-10.1113772175543,"more away","False","R","NR","lp",NA,"Left",NA,"Left",-2,4,"first",2,"NR","in"
"66",1251.20749999955,11804.9121000004,87638.1848000003,10,56,"n",3,"['3']","y","#000000","no",736487.5934,2,"bias","psycho","psycho","psycho",0,"uniform",1,0,1,1,NA,1,0,NA,0,0,1,0,65,65,NA,NA,NA,NA,0,1,1,NA,65,1,65,73.2296414732588,"Tue Jul 20 15:06:03 2021","The main experiment item","yes","green","no","None","circle",NA,"pinging_target_expectations 3.2.osexp","C:\Users\etp-cp-ping\Desktop\LocalPC-EXP",75,"no","mono","no",18,"no","white","no","yes",1050,NA,0,"psycho",9,1,9,"C:/Users/etp-cp-ping/Desktop/LocalPC-EXP/subject-1.csv","psycho",7,66,10,"Lentiform Loewenfeld","3.3.8","['vert', 'hori', 'vert', 'hori', 'hori', 'hori', 'vert', 'vert']","yes",100,"diamond","no",0,NA,2,"legacy",NA,1024,2,48000,-16,"experiment",1,"odd","red","no",5,"diamond",359986.9871,652185.2181,652185.2675,NA,657095.8791,NA,NA,101766.4254,1628.69299999966,601234.6778,101766.4474,735906.5363,738883.7108,NA,NA,NA,NA,1628.77469999967,707725.8431,600721.6906,NA,735906.551,708212.184,735906.4857,"New experiment",19,"[0, 96.92187285890274, 182.0813757969512, 291.22947823690725, 426.02387165363234, 579.2643795252039, 748.8049166444625, 926.1456715899953, 1107.0395267399667, 1294.1100984401467, 1341.4419718552797]","dist_absent",56,69,"yes","no",1680,-20.7186129653933,-13.3791272175543,"more away","False","NR","NR","lp",NA,"Right",NA,NA,3,NA,"first",2,"R","in"
"67",1279.69329999993,13084.6054000003,88917.8781000003,11,57,"n",3,"['3']","y","#000000","no",736487.5934,2,"bias","psycho","psycho","psycho",0,"uniform",1,0,1,1,NA,1,0,NA,0,0,1,0,66,66,NA,NA,NA,NA,0,1,1,NA,66,1,66,73.2296414732588,"Tue Jul 20 15:06:03 2021","The main experiment item","yes","red","no","None","diamond",NA,"pinging_target_expectations 3.2.osexp","C:\Users\etp-cp-ping\Desktop\LocalPC-EXP",75,"no","mono","no",18,"no","white","no","yes",1050,NA,0,"psycho",10,1,10,"C:/Users/etp-cp-ping/Desktop/LocalPC-EXP/subject-1.csv","psycho",7,67,11,"Lentiform Loewenfeld","3.3.8","['vert', 'hori', 'hori', 'hori', 'vert', 'vert', 'vert', 'hori']","no",200,"None","no",0,NA,2,"legacy",NA,1024,2,48000,-16,"experiment",1,"odd","green","yes",0,"circle",359986.9871,652185.2181,652185.2675,NA,657095.8791,NA,NA,101766.4254,1628.69299999966,601234.6778,101766.4474,738914.1494,742019.8397,NA,NA,NA,NA,1628.77469999967,707725.8431,600721.6906,NA,738914.1636,708212.184,738914.0979,"New experiment",19,"[0]","dist_absent",56,19,"yes","yes",1680,-17.5881129653933,-20.7043772175543,"more toward","False","NR","R","lp",NA,NA,NA,NA,0,NA,"first",5,"NR","ex"
"68",1580.42930000008,14665.0347000004,90498.3074000003,12,58,"n",3,"['3']","y","#000000","no",742429.6708,2,"bias","psycho","psycho","psycho",0,"uniform",1,0,1,1,NA,1,0,NA,0,0,1,0,67,67,NA,NA,NA,NA,0,1,1,NA,67,1,67,73.2296414732588,"Tue Jul 20 15:06:03 2021","The main experiment item","yes","red","no","5","diamond",NA,"pinging_target_expectations 3.2.osexp","C:\Users\etp-cp-ping\Desktop\LocalPC-EXP",75,"no","mono","no",18,"no","white","no","yes",1050,NA,0,"psycho",11,1,11,"C:/Users/etp-cp-ping/Desktop/LocalPC-EXP/subject-1.csv","psycho",8,68,12,"Lentiform Loewenfeld","3.3.8","['vert', 'hori', 'hori', 'vert', 'vert', 'hori', 'hori', 'vert']","no",200,"None","no",0,NA,2,"legacy",NA,1024,2,48000,-16,"experiment",1,"odd","green","yes",0,"circle",359986.9871,652185.2181,652185.2675,NA,657095.8791,NA,NA,101766.4254,1628.69299999966,601234.6778,101766.4474,742050.4487,745507.8694,NA,NA,NA,NA,1628.77469999967,707725.8431,600721.6906,NA,742050.4632,708212.184,742050.3951,"New experiment",19,"[0]","dist_present",56,16,"yes","no",1680,-26.3926129653933,-12.5946272175543,"more away","False","R","NR","hp","Right",NA,NA,NA,0,3,"first",0,"NR","ex"
"69",1611.7812000002,16276.8159000006,92110.0886000005,13,59,"n",3,"['3']","y","#000000","no",746347.7364,2,"bias","psycho","psycho","psycho",0,"uniform",1,0,1,1,NA,1,0,NA,0,0,1,0,68,68,NA,NA,NA,NA,0,1,1,NA,68,1,68,73.2296414732588,"Tue Jul 20 15:06:03 2021","The main experiment item","yes","green","no","2","diamond",NA,"pinging_target_expectations 3.2.osexp","C:\Users\etp-cp-ping\Desktop\LocalPC-EXP",75,"no","mono","no",18,"no","white","no","yes",1050,NA,0,"psycho",12,1,12,"C:/Users/etp-cp-ping/Desktop/LocalPC-EXP/subject-1.csv","psycho",9,69,13,"Lentiform Loewenfeld","3.3.8","['vert', 'hori', 'vert', 'vert', 'hori', 'hori', 'hori', 'vert']","yes",100,"circles","no",0,NA,2,"legacy",NA,1024,2,48000,-16,"experiment",1,"odd","red","yes",0,"circle",359986.9871,652185.2181,652185.2675,NA,657095.8791,NA,NA,101766.4254,1628.69299999966,601234.6778,101766.4474,745538.4033,749011.806,NA,NA,NA,NA,1628.77469999967,707725.8431,600721.6906,NA,745538.417700001,708212.184,745538.3531,"New experiment",19,"[0, 161.09878291422908, 276.4132116271081, 408.2001224381203, 559.429063826339, 720.4400049195485, 889.2889949905648, 1079.3630636339237, 1282.827802769187, 1331.351871646897]","dist_present",56,13,"yes","no",1680,-27.6093629653933,-16.1788772175543,"more away","False","R","NR","hp","Left",NA,"Left",NA,0,-2,"first",0,"R","ex"
"70",799.742799999891,17076.5587000005,92909.8314000004,14,60,"n",3,"['3']","y","#000000","no",749579.7396,2,"bias","psycho","psycho","psycho",0,"uniform",1,0,1,1,NA,1,0,NA,0,0,1,0,69,69,NA,NA,NA,NA,0,1,1,NA,69,1,69,73.2296414732588,"Tue Jul 20 15:06:03 2021","The main experiment item","yes","red","no","5","circle",NA,"pinging_target_expectations 3.2.osexp","C:\Users\etp-cp-ping\Desktop\LocalPC-EXP",75,"no","mono","no",18,"no","white","no","yes",1050,NA,0,"psycho",13,1,13,"C:/Users/etp-cp-ping/Desktop/LocalPC-EXP/subject-1.csv","psycho",10,70,14,"Lentiform Loewenfeld","3.3.8","['hori', 'hori', 'hori', 'vert', 'vert', 'vert', 'vert', 'hori']","yes",100,"circles","no",0,NA,2,"legacy",NA,1024,2,48000,-16,"experiment",1,"odd","green","yes",0,"diamond",359986.9871,652185.2181,652185.2675,NA,657095.8791,NA,NA,101766.4254,1628.69299999966,601234.6778,101766.4474,749042.5168,751731.7621,NA,NA,NA,NA,1628.77469999967,707725.8431,600721.6906,NA,749042.5314,708212.184,749042.4667,"New experiment",19,"[0]","dist_present",56,16,"yes","yes",1680,-28.0873629653933,-68.5903772175542,"more toward","False","R","NR","hp","Right",NA,NA,NA,0,3,"first",0,"R","ex"
"71",1563.2779999997,18639.8367000002,94473.1094000001,15,61,"n",3,"['3']","y","#000000","no",752201.8131,2,"bias","psycho","psycho","psycho",0,"uniform",1,0,1,1,NA,1,0,NA,0,0,1,0,70,70,NA,NA,NA,NA,0,1,1,NA,70,1,70,73.2296414732588,"Tue Jul 20 15:06:03 2021","The main experiment item","yes","red","no","None","diamond",NA,"pinging_target_expectations 3.2.osexp","C:\Users\etp-cp-ping\Desktop\LocalPC-EXP",75,"no","mono","no",18,"no","white","no","yes",1050,NA,0,"psycho",14,1,14,"C:/Users/etp-cp-ping/Desktop/LocalPC-EXP/subject-1.csv","psycho",11,71,15,"Lentiform Loewenfeld","3.3.8","['vert', 'hori', 'hori', 'hori', 'vert', 'vert', 'vert', 'hori']","yes",100,"circles","no",0,NA,2,"legacy",NA,1024,2,48000,-16,"experiment",1,"odd","green","no",1,"circle",359986.9871,652185.2181,652185.2675,NA,657095.8791,NA,NA,101766.4254,1628.69299999966,601234.6778,101766.4474,751762.4265,755155.861599999,NA,NA,NA,NA,1628.77469999967,707725.8431,600721.6906,NA,751762.4406,708212.184,751762.3762,"New experiment",19,"[0]","dist_absent",56,29,"yes","yes",1680,-20.1556129653933,-27.7736272175543,"more toward","False","NR","NR","hp",NA,"Left",NA,NA,-1,NA,"first",0,"R","in"
"72",1154.37539999955,19794.2120999998,95627.4847999997,16,62,"n",3,"['3']","y","#000000","no",752201.8131,2,"bias","psycho","psycho","psycho",0,"uniform",1,0,1,1,NA,1,0,NA,0,0,1,0,71,71,NA,NA,NA,NA,0,1,1,NA,71,1,71,73.2296414732588,"Tue Jul 20 15:06:03 2021","The main experiment item","yes","green","no","None","diamond",NA,"pinging_target_expectations 3.2.osexp","C:\Users\etp-cp-ping\Desktop\LocalPC-EXP",75,"no","mono","no",18,"no","white","no","yes",1050,NA,0,"psycho",15,1,15,"C:/Users/etp-cp-ping/Desktop/LocalPC-EXP/subject-1.csv","psycho",11,72,16,"Lentiform Loewenfeld","3.3.8","['hori', 'vert', 'hori', 'vert', 'hori', 'vert', 'hori', 'vert']","no",200,"None","no",0,NA,2,"legacy",NA,1024,2,48000,-16,"experiment",1,"odd","red","no",7,"circle",359986.9871,652185.2181,652185.2675,NA,657095.8791,NA,NA,101766.4254,1628.69299999966,601234.6778,101766.4474,755186.959199999,758291.7634,NA,NA,NA,NA,1628.77469999967,707725.8431,600721.6906,NA,755186.9738,708212.184,755186.907800001,"New experiment",19,"[0, 857.6720610846753, 813.1295458519528, 771.8680262842865, 728.75401646654, 689.6561451919912, 651.3733145082919, 614.2162738439029, 580.071192391234, 546.8498988525101, 514.9975713165229, 485.28475113592776, 455.8307000942765, 428.07212959926466, 399.70549189555175, 372.9139732339165, 350.2303389343344, 325.5927151551615, 301.18941716907847, 278.28993929004827, 255.0684693664462, 236.0471859173341, 214.20894109335524, 193.96918536986132, 174.5286758077307, 154.9240987453876, 138.88161519636617, 119.67724953046225, 104.9098533228364, 88.56143448602758, 77.4031898334136, 73.73908205070383, 74.21103696764247, 74.71009922213621, 75.00887719273727]","dist_absent",56,89,"yes","yes",1680,-21.5358629653933,-40.1383772175543,"more toward","False","NR","R","lp",NA,"Right",NA,NA,1,NA,"first",1,"NR","in"
"73",1182.72419999994,20976.9362999997,96810.2089999996,17,63,"n",3,"['3']","y","#000000","no",758803.9108,2,"bias","psycho","psycho","psycho",0,"uniform",1,0,1,1,NA,1,0,NA,0,0,1,0,72,72,NA,NA,NA,NA,0,1,1,NA,72,1,72,73.2296414732588,"Tue Jul 20 15:06:03 2021","The main experiment item","yes","green","no","None","diamond",NA,"pinging_target_expectations 3.2.osexp","C:\Users\etp-cp-ping\Desktop\LocalPC-EXP",75,"no","mono","no",18,"no","white","no","yes",1050,NA,0,"psycho",16,1,16,"C:/Users/etp-cp-ping/Desktop/LocalPC-EXP/subject-1.csv","psycho",12,73,17,"Lentiform Loewenfeld","3.3.8","['vert', 'vert', 'hori', 'hori', 'hori', 'vert', 'vert', 'hori']","no",200,"None","no",0,NA,2,"legacy",NA,1024,2,48000,-16,"experiment",1,"odd","red","no",6,"circle",359986.9871,652185.2181,652185.2675,NA,657095.8791,NA,NA,101766.4254,1628.69299999966,601234.6778,101766.4474,758323.187999999,761523.7706,NA,NA,NA,NA,1628.77469999967,707725.8431,600721.6906,NA,758323.2022,708212.184,758323.1386,"New experiment",19,"[0]","dist_absent",56,79,"yes","yes",1680,-15.6031129653933,-32.5626272175543,"more toward","False","NR","R","lp",NA,"Right",NA,"Right",2,NA,"first",7,"NR","in"
"74",1949.70640000072,22926.6427000004,98759.9154000003,18,64,"n",3,"['3']","y","#000000","no",762077.915000001,2,"bias","psycho","psycho","psycho",0,"uniform",1,0,1,1,NA,1,0,NA,0,0,1,0,73,73,NA,NA,NA,NA,0,1,1,NA,73,1,73,73.2296414732588,"Tue Jul 20 15:06:03 2021","The main experiment item","yes","green","no","6","diamond",NA,"pinging_target_expectations 3.2.osexp","C:\Users\etp-cp-ping\Desktop\LocalPC-EXP",75,"no","mono","no",18,"no","white","no","yes",1050,NA,0,"psycho",17,1,17,"C:/Users/etp-cp-ping/Desktop/LocalPC-EXP/subject-1.csv","psycho",13,74,18,"Lentiform Loewenfeld","3.3.8","['hori', 'vert', 'hori', 'vert', 'hori', 'hori', 'vert', 'vert']","yes",100,"circles","no",0,NA,2,"legacy",NA,1024,2,48000,-16,"experiment",1,"odd","red","no",3,"circle",359986.9871,652185.2181,652185.2675,NA,657095.8791,NA,NA,101766.4254,1628.69299999966,601234.6778,101766.4474,761554.2447,765523.830200001,NA,NA,NA,NA,1628.77469999967,707725.8431,600721.6906,NA,761554.2591,708212.184,761554.195,"New experiment",19,"[0]","dist_present",56,47,"yes","no",1680,-26.7941129653933,-16.3193772175543,"more away","False","NR","NR","lp",NA,NA,NA,NA,-3,2,"first",6,"NR","in"
"75",1159.53469999833,24086.1773999988,99919.4500999987,19,65,"n",3,"['3']","y","#000000","no",765922.022,2,"bias","psycho","psycho","psycho",0,"uniform",1,0,1,1,NA,1,0,NA,0,0,1,0,74,74,NA,NA,NA,NA,0,1,1,NA,74,1,74,73.2296414732588,"Tue Jul 20 15:06:03 2021","The main experiment item","yes","red","yes","0","circle",NA,"pinging_target_expectations 3.2.osexp","C:\Users\etp-cp-ping\Desktop\LocalPC-EXP",75,"no","mono","no",18,"no","white","no","yes",1050,NA,0,"psycho",18,1,18,"C:/Users/etp-cp-ping/Desktop/LocalPC-EXP/subject-1.csv","psycho",14,75,19,"Lentiform Loewenfeld","3.3.8","['vert', 'vert', 'hori', 'vert', 'vert', 'hori', 'hori', 'hori']","no",200,"None","no",0,NA,2,"legacy",NA,1024,2,48000,-16,"experiment",1,"odd","green","no",3,"diamond",359986.9871,652185.2181,652185.2675,NA,657095.8791,NA,NA,101766.4254,1628.69299999966,601234.6778,101766.4474,765554.2538,768643.7684,NA,NA,NA,NA,1628.77469999967,707725.8431,600721.6906,NA,765554.2681,708212.184,765554.2019,"New experiment",19,"[0]","dist_present",56,41,"yes","no",1680,-1.21611296539326,-17.3296272175543,"more away","False","R","NR","lp",NA,"Left",NA,NA,-3,0,"first",3,"NR","in"
"76",1046.17629999842,25132.3536999972,100965.626399997,20,66,"n",3,"['3']","y","#000000","no",765922.022,2,"bias","psycho","psycho","psycho",0,"uniform",1,0,1,1,NA,1,0,NA,0,0,1,0,75,75,NA,NA,NA,NA,0,1,1,NA,75,1,75,73.2296414732588,"Tue Jul 20 15:06:03 2021","The main experiment item","yes","red","no","7","circle",NA,"pinging_target_expectations 3.2.osexp","C:\Users\etp-cp-ping\Desktop\LocalPC-EXP",75,"no","mono","no",18,"no","white","no","yes",1050,NA,0,"psycho",19,1,19,"C:/Users/etp-cp-ping/Desktop/LocalPC-EXP/subject-1.csv","psycho",14,76,20,"Lentiform Loewenfeld","3.3.8","['vert', 'hori', 'hori', 'hori', 'vert', 'hori', 'vert', 'vert']","no",200,"None","no",0,NA,2,"legacy",NA,1024,2,48000,-16,"experiment",1,"odd","green","no",4,"diamond",359986.9871,652185.2181,652185.2675,NA,657095.8791,NA,NA,101766.4254,1628.69299999966,601234.6778,101766.4474,768674.534000001,771779.720400001,NA,NA,NA,NA,1628.77469999967,707725.8431,600721.6906,NA,768674.5485,708212.184,768674.483,"New experiment",19,"[0]","dist_present",56,58,"yes","yes",1680,-14.1171129653933,-6.06987721755426,"more away","False","NR","NR","lp","Right",NA,NA,NA,4,1,"first",3,"R","in"
"77",1000.77959999908,26133.1332999963,101966.405999996,20,66,"n",3,"['3']","y","#000000","no",773270.116299999,2,"bias","psycho","psycho","psycho",0,"uniform",0,0,1,1,NA,1,0,NA,0,0,1,0,76,76,NA,NA,NA,NA,0,1,1,NA,76,1,76,73.2296414732588,"Tue Jul 20 15:06:03 2021","The main experiment item","yes","green","no","3","diamond",NA,"pinging_target_expectations 3.2.osexp","C:\Users\etp-cp-ping\Desktop\LocalPC-EXP",75,"no","mono","no",18,"no","white","no","yes",1050,NA,0,"psycho",20,1,20,"C:/Users/etp-cp-ping/Desktop/LocalPC-EXP/subject-1.csv","psycho",15,77,21,"Lentiform Loewenfeld","3.3.8","['vert', 'hori', 'hori', 'vert', 'vert', 'vert', 'hori', 'hori']","no",200,"None","no",0,NA,2,"legacy",NA,1024,2,48000,-16,"experiment",1,"odd","red","no",2,"circle",359986.9871,652185.2181,652185.2675,NA,657095.8791,NA,NA,101766.4254,1628.69299999966,601234.6778,101766.4474,771810.145300001,774787.7942,NA,NA,NA,NA,1628.77469999967,707725.8431,600721.6906,NA,771810.1595,708212.184,771810.0941,"New experiment",19,"[0, 91.19347564382005, 195.2547282933221, 330.3098940146737, 493.2178106082266, 672.9253431881473, 868.2915497831393, 1081.6419485873541, 1301.8411212202143, 1351.854891003679]","dist_present",56,34,"yes","no",1680,6.78237352109323,-21.6951362265633,"more toward","True","NR","NR","lp",NA,NA,NA,NA,-2,-3,"first",4,"NR","in"
"78",2000.62079999957,28133.7540999958,103967.026799996,20,66,"n",3,"['3']","y","#000000","no",775930.1401,2,"bias","psycho","psycho","psycho",0,"uniform",0,0,1,1,NA,1,0,NA,0,0,1,0,77,77,NA,NA,NA,NA,0,1,1,NA,77,1,77,73.2296414732588,"Tue Jul 20 15:06:03 2021","The main experiment item","yes","red","no","2","circle",NA,"pinging_target_expectations 3.2.osexp","C:\Users\etp-cp-ping\Desktop\LocalPC-EXP",75,"no","mono","no",18,"no","white","no","yes",1050,NA,0,"psycho",21,1,21,"C:/Users/etp-cp-ping/Desktop/LocalPC-EXP/subject-1.csv","psycho",16,78,22,"Lentiform Loewenfeld","3.3.8","['hori', 'vert', 'hori', 'vert', 'vert', 'hori', 'vert', 'hori']","no",200,"None","no",0,NA,2,"legacy",NA,1024,2,48000,-16,"experiment",1,"odd","green","no",1,"diamond",359986.9871,652185.2181,652185.2675,NA,657095.8791,NA,NA,101766.4254,1628.69299999966,601234.6778,101766.4474,774818.501299999,778691.814000001,NA,NA,NA,NA,1628.77469999967,707725.8431,600721.6906,NA,774818.515600001,708212.184,774818.4495,"New experiment",19,"[0, 88.37133106002456, 172.84589630543633, 277.3125621989041, 395.4117357996677, 525.8631457161301, 659.5514680514252, 801.8954609230722, 945.2845406350793, 1098.0994558337347, 1257.6464099008217, 1352.3293586250427]","dist_present",56,23,"yes","no",1680,-6.5566677099188,-4.7459812321528,"more away","True","NR","NR","lp",NA,NA,NA,NA,-1,-2,"first",2,"NR","in"
