"","RT","RT_bl","RT_tot","acc_bl","acc_tot","answer_debrief_1","answer_debrief_2","answer_debrief_3","answer_debrief_4","background","bidi","blink_onset","block_cnt","block_type","canvas_backend","clock_backend","color_backend","compensation","coordinates","correct","count_block_loop","count_block_seq","count_block_settings","count_check_session","count_drift_correct","count_end_loop","count_end_seq","count_exp_settings","count_experiment","count_feedback","count_instructions","count_log_variables","count_logger","count_new_inline_script","count_new_pygaze_drift_correct","count_new_pygaze_start_recording","count_new_pygaze_stop_recording","count_pygaze","count_start_recording","count_stop_recording","count_test_location","count_trial","count_trial_loop","count_trial_seq","d_eye","datetime","description","disable_garbage_collection","dist_color","dist_high","dist_loc","dist_shape","empty_column","experiment_file","experiment_path","eye_threshold_length","font_bold","font_family","font_italic","font_size","font_underline","foreground","form_clicks","fullscreen","height","high_loc","high_prob_loc","keyboard_backend","live_row","live_row_block_loop","live_row_trial_loop","logfile","mouse_backend","nr_blinks","nr_trials","nr_trials_bl","opensesame_codename","opensesame_version","orient_list_trial","ping","ping_trigger","ping_type","practice","repeat_cycle","response","round_decimals","sampler_backend","session_nr","sound_buf_size","sound_channels","sound_freq","sound_sample_size","start","subject_nr","subject_parity","target_color","target_high","target_loc","target_shape","time_block_loop","time_block_seq","time_block_settings","time_check_session","time_drift_correct","time_end_loop","time_end_seq","time_exp_settings","time_experiment","time_feedback","time_instructions","time_log_variables","time_logger","time_new_inline_script","time_new_pygaze_drift_correct","time_new_pygaze_start_recording","time_new_pygaze_stop_recording","time_pygaze","time_start_recording","time_stop_recording","time_test_location","time_trial","time_trial_loop","time_trial_seq","title","total_blocks","tracker_dev","trial_type","trials_in_block","trigger","uniform_coordinates","update_blinks","width","x","y","toward","containsNaN","rept","repd","prevtar","pd","nt","pd_c","nt_c","tar_dist","dist_dist","prevHP","eegTar","repteeg","tarcounter"
"1",967.991499999698,967.991499999698,967.991499999698,1,1,"y",1,"['5', '3', '7', 'space']","y","#000000","no",57857.2237000008,1,"neutral","psycho","psycho","psycho",0,"uniform",1,0,0,0,NA,0,0,NA,0,0,0,0,0,0,NA,NA,NA,NA,0,0,0,NA,0,0,0,73.2296414732588,"Tue Sep 21 14:39:05 2021","The main experiment item","yes","green","no","5","circle",NA,"pinging_target_expectations 4.0.osexp","C:\Users\etp-cp-ping\Desktop\LocalPC-EXP",75,"no","mono","no",18,"no","white","no","yes",1050,NA,100,"psycho",0,0,0,"C:/Users/etp-cp-ping/Desktop/LocalPC-EXP/subject-16.csv","psycho",2,1,1,"Lentiform Loewenfeld","3.3.8","['hori', 'hori', 'hori', 'hori', 'vert', 'vert', 'vert', 'vert']","no",209,"None","yes",0,NA,2,"legacy",NA,1024,2,48000,-16,"experiment",16,"even","red","no",7,"diamond",12861.3495999998,12980.5648000001,12980.7072000003,NA,15253.4223000002,NA,NA,6987.99040000085,1636.04060000034,NA,6988.01249999997,55773.1703999998,58894.1778999997,NA,NA,NA,NA,1636.11889999993,55416.8371000014,NA,NA,55773.1863999998,55768.6939000014,55773.0972999998,"New experiment",19,"[0]","dist_present",56,86,"yes","yes",1680,NA,NA,NA,NA,"NR","NR","lp",NA,NA,NA,NA,NA,NA,"practice",999,"NR","in"
"2",1238.07900000065,2206.07050000035,2206.07050000035,2,2,"y",1,"['5', '3', '7', 'space']","y","#000000","no",57857.2237000008,1,"neutral","psycho","psycho","psycho",0,"uniform",1,0,0,0,NA,0,0,NA,0,0,0,0,1,1,NA,NA,NA,NA,0,0,0,NA,1,0,1,73.2296414732588,"Tue Sep 21 14:39:05 2021","The main experiment item","yes","green","no","7","diamond",NA,"pinging_target_expectations 4.0.osexp","C:\Users\etp-cp-ping\Desktop\LocalPC-EXP",75,"no","mono","no",18,"no","white","no","yes",1050,NA,100,"psycho",1,0,1,"C:/Users/etp-cp-ping/Desktop/LocalPC-EXP/subject-16.csv","psycho",2,2,2,"Lentiform Loewenfeld","3.3.8","['hori', 'hori', 'vert', 'vert', 'hori', 'hori', 'vert', 'vert']","yes",109,"diamond","yes",0,NA,2,"legacy",NA,1024,2,48000,-16,"experiment",16,"even","red","no",0,"circle",12861.3495999998,12980.5648000001,12980.7072000003,NA,15253.4223000002,NA,NA,6987.99040000085,1636.04060000034,NA,6988.01249999997,58932.2212000006,62366.1608000002,NA,NA,NA,NA,1636.11889999993,55416.8371000014,NA,NA,58932.2370000009,55768.6939000014,58932.1706999999,"New experiment",19,"[0]","dist_present",56,18,"yes","yes",1680,NA,NA,NA,NA,"NR","NR","lp","Right",NA,NA,NA,NA,NA,"practice",7,"NR","in"
"3",1112.94380000072,3319.01430000107,3319.01430000107,3,3,"y",1,"['5', '3', '7', 'space']","y","#000000","no",57857.2237000008,1,"neutral","psycho","psycho","psycho",0,"uniform",1,0,0,0,NA,0,0,NA,0,0,0,0,2,2,NA,NA,NA,NA,0,0,0,NA,2,0,2,73.2296414732588,"Tue Sep 21 14:39:05 2021","The main experiment item","yes","green","no","None","diamond",NA,"pinging_target_expectations 4.0.osexp","C:\Users\etp-cp-ping\Desktop\LocalPC-EXP",75,"no","mono","no",18,"no","white","no","yes",1050,NA,100,"psycho",2,0,2,"C:/Users/etp-cp-ping/Desktop/LocalPC-EXP/subject-16.csv","psycho",2,3,3,"Lentiform Loewenfeld","3.3.8","['vert', 'hori', 'vert', 'hori', 'vert', 'vert', 'hori', 'hori']","no",209,"None","yes",0,NA,2,"legacy",NA,1024,2,48000,-16,"experiment",16,"even","red","no",1,"circle",12861.3495999998,12980.5648000001,12980.7072000003,NA,15253.4223000002,NA,NA,6987.99040000085,1636.04060000034,NA,6988.01249999997,62397.2083999997,65470.2941000014,NA,NA,NA,NA,1636.11889999993,55416.8371000014,NA,NA,62397.2224999998,55768.6939000014,62397.1575000014,"New experiment",19,"[0]","dist_absent",56,29,"yes","yes",1680,NA,NA,NA,NA,"NR","NR","lp",NA,"Left",NA,NA,NA,NA,"practice",0,"NR","in"
"4",1042.28739999962,4361.30170000069,4361.30170000069,4,4,"y",1,"['5', '3', '7', 'space']","y","#000000","no",57857.2237000008,1,"neutral","psycho","psycho","psycho",0,"uniform",1,0,0,0,NA,0,0,NA,0,0,0,0,3,3,NA,NA,NA,NA,0,0,0,NA,3,0,3,73.2296414732588,"Tue Sep 21 14:39:05 2021","The main experiment item","yes","red","no","None","circle",NA,"pinging_target_expectations 4.0.osexp","C:\Users\etp-cp-ping\Desktop\LocalPC-EXP",75,"no","mono","no",18,"no","white","no","yes",1050,NA,100,"psycho",3,0,3,"C:/Users/etp-cp-ping/Desktop/LocalPC-EXP/subject-16.csv","psycho",2,4,4,"Lentiform Loewenfeld","3.3.8","['vert', 'hori', 'hori', 'hori', 'vert', 'vert', 'hori', 'vert']","no",209,"None","yes",0,NA,2,"legacy",NA,1024,2,48000,-16,"experiment",16,"even","green","no",5,"diamond",12861.3495999998,12980.5648000001,12980.7072000003,NA,15253.4223000002,NA,NA,6987.99040000085,1636.04060000034,NA,6988.01249999997,65501.1697000009,68590.1673000008,NA,NA,NA,NA,1636.11889999993,55416.8371000014,NA,NA,65501.1844000001,55768.6939000014,65501.1178000004,"New experiment",19,"[0]","dist_absent",56,69,"yes","yes",1680,NA,NA,NA,NA,"NR","R","lp",NA,"Right",NA,NA,NA,NA,"practice",1,"NR","in"
"5",865.479199999754,5226.78090000045,5226.78090000045,5,5,"y",1,"['5', '3', '7', 'space']","y","#000000","no",69322.9437999998,1,"neutral","psycho","psycho","psycho",0,"uniform",1,0,0,0,NA,0,0,NA,0,0,0,0,4,4,NA,NA,NA,NA,0,0,0,NA,4,0,4,73.2296414732588,"Tue Sep 21 14:39:05 2021","The main experiment item","yes","green","no","None","circle",NA,"pinging_target_expectations 4.0.osexp","C:\Users\etp-cp-ping\Desktop\LocalPC-EXP",75,"no","mono","no",18,"no","white","no","yes",1050,NA,100,"psycho",4,0,4,"C:/Users/etp-cp-ping/Desktop/LocalPC-EXP/subject-16.csv","psycho",4,5,5,"Lentiform Loewenfeld","3.3.8","['hori', 'vert', 'vert', 'vert', 'vert', 'hori', 'hori', 'hori']","no",209,"None","yes",0,NA,2,"legacy",NA,1024,2,48000,-16,"experiment",16,"even","red","no",4,"diamond",12861.3495999998,12980.5648000001,12980.7072000003,NA,15253.4223000002,NA,NA,6987.99040000085,1636.04060000034,NA,6988.01249999997,68622.4559000002,71262.3732000011,NA,NA,NA,NA,1636.11889999993,55416.8371000014,NA,NA,68622.4699000013,55768.6939000014,68622.4020999998,"New experiment",19,"[0, 76.29025544702692, 104.97320549583834, 136.41805872246394, 167.2394775729925, 202.5893263389869, 237.03269046715562, 277.2303272914382, 314.1606118323177, 354.43220410900955, 395.9764974937073, 437.2350863604489, 484.18438854111594, 531.5221606258094, 578.6838408312113, 631.5994492608773, 683.1111415708882, 741.1683992553164, 796.3688155732124, 859.7003003295515, 922.1210101835202, 1022.4009001224958, 1089.8458353205867, 1154.826248468935, 1221.9960553544192, 1278.7141729338937]","dist_absent",56,59,"yes","no",1680,NA,NA,NA,NA,"NR","R","lp",NA,NA,NA,NA,NA,NA,"practice",5,"NR","in"
"6",725.237099999504,5952.01799999995,5952.01799999995,6,6,"y",1,"['5', '3', '7', 'space']","y","#000000","no",69322.9437999998,1,"neutral","psycho","psycho","psycho",0,"uniform",1,0,0,0,NA,0,0,NA,0,0,0,0,5,5,NA,NA,NA,NA,0,0,0,NA,5,0,5,73.2296414732588,"Tue Sep 21 14:39:05 2021","The main experiment item","yes","green","no","7","circle",NA,"pinging_target_expectations 4.0.osexp","C:\Users\etp-cp-ping\Desktop\LocalPC-EXP",75,"no","mono","no",18,"no","white","no","yes",1050,NA,100,"psycho",5,0,5,"C:/Users/etp-cp-ping/Desktop/LocalPC-EXP/subject-16.csv","psycho",4,6,6,"Lentiform Loewenfeld","3.3.8","['vert', 'vert', 'hori', 'vert', 'hori', 'vert', 'hori', 'hori']","no",209,"None","yes",0,NA,2,"legacy",NA,1024,2,48000,-16,"experiment",16,"even","red","no",4,"diamond",12861.3495999998,12980.5648000001,12980.7072000003,NA,15253.4223000002,NA,NA,6987.99040000085,1636.04060000034,NA,6988.01249999997,71293.3766000006,74014.1248,NA,NA,NA,NA,1636.11889999993,55416.8371000014,NA,NA,71293.3905999998,55768.6939000014,71293.3267999997,"New experiment",19,"[0]","dist_present",56,58,"yes","yes",1680,NA,NA,NA,NA,"R","NR","lp","Right",NA,NA,NA,NA,NA,"practice",4,"NR","in"
"7",1440.99219999953,7393.01019999948,7393.01019999948,6,6,"y",1,"['5', '3', '7', 'space']","y","#000000","no",69322.9437999998,1,"neutral","psycho","psycho","psycho",0,"uniform",0,0,0,0,NA,0,0,NA,0,0,0,0,6,6,NA,NA,NA,NA,0,0,0,NA,6,0,6,73.2296414732588,"Tue Sep 21 14:39:05 2021","The main experiment item","yes","green","no","4","diamond",NA,"pinging_target_expectations 4.0.osexp","C:\Users\etp-cp-ping\Desktop\LocalPC-EXP",75,"no","mono","no",18,"no","white","no","yes",1050,NA,100,"psycho",6,0,6,"C:/Users/etp-cp-ping/Desktop/LocalPC-EXP/subject-16.csv","psycho",4,7,7,"Lentiform Loewenfeld","3.3.8","['hori', 'vert', 'vert', 'vert', 'hori', 'vert', 'hori', 'hori']","no",209,"None","yes",0,NA,2,"legacy",NA,1024,2,48000,-16,"experiment",16,"even","red","no",7,"circle",12861.3495999998,12980.5648000001,12980.7072000003,NA,15253.4223000002,NA,NA,6987.99040000085,1636.04060000034,NA,6988.01249999997,74044.6484000004,77294.1425000008,NA,NA,NA,NA,1636.11889999993,55416.8371000014,NA,NA,74044.6626000012,55768.6939000014,74044.5981000012,"New experiment",19,"[0, 252.84888073562635, 245.74446199869385, 235.7188636090332, 228.72675816866058, 222.53075025067704, 213.93915206463262, 206.05594833737655, 201.25334579056138, 193.56740300059482, 185.15099646423715, 180.23931027866024, 171.6527274053178, 165.37548786717238, 158.39823231336896, 149.89466633637883, 149.62332556531018, 139.91138535499485, 134.0111327326553, 129.10354926610563, 123.60298494852113, 114.34091160815343, 106.69142784857546, 106.28096952146522, 100.17529449153116, 92.06505159715672, 88.46342475583651, 81.16458793385699, 77.36926078649829]","dist_present",56,85,"yes","yes",1680,NA,NA,NA,NA,"NR","NR","lp",NA,"Right",NA,NA,NA,NA,"practice",4,"R","in"
"8",1426.40899999969,8819.41919999917,8819.41919999917,7,7,"y",1,"['5', '3', '7', 'space']","y","#000000","no",77990.6028000005,1,"neutral","psycho","psycho","psycho",0,"uniform",1,0,0,0,NA,0,0,NA,0,0,0,0,7,7,NA,NA,NA,NA,0,0,0,NA,7,0,7,73.2296414732588,"Tue Sep 21 14:39:05 2021","The main experiment item","yes","green","no","None","diamond",NA,"pinging_target_expectations 4.0.osexp","C:\Users\etp-cp-ping\Desktop\LocalPC-EXP",75,"no","mono","no",18,"no","white","no","yes",1050,NA,100,"psycho",7,0,7,"C:/Users/etp-cp-ping/Desktop/LocalPC-EXP/subject-16.csv","psycho",6,8,8,"Lentiform Loewenfeld","3.3.8","['hori', 'hori', 'hori', 'vert', 'hori', 'vert', 'vert', 'vert']","yes",109,"diamond","yes",0,NA,2,"legacy",NA,1024,2,48000,-16,"experiment",16,"even","red","no",2,"circle",12861.3495999998,12980.5648000001,12980.7072000003,NA,15253.4223000002,NA,NA,6987.99040000085,1636.04060000034,NA,6988.01249999997,77325.0010000011,80590.1591000002,NA,NA,NA,NA,1636.11889999993,55416.8371000014,NA,NA,77325.0148000006,55768.6939000014,77324.9495,"New experiment",19,"[0, 80.5124758929612, 99.11003431221246, 120.07497657713701, 148.34001929096334, 170.2573350882962, 195.75744591671892, 218.7555900178624, 246.50160674215815, 273.2090862410851, 299.2477320738921, 328.06400919024503, 360.18793765834454, 387.9377111558209, 418.12485895457405, 447.93588600239497, 478.54244050374626, 512.5074915182287, 544.7681538061566, 580.9085880127403, 612.2119162196457, 644.9350742516644, 679.7868454479991, 709.4471555314743, 743.4190582878451, 775.0630167298301, 812.2027581952196, 845.5576200044316, 882.4831783265322, 916.6120263359691, 950.817504493153, 1018.091742953607, 1059.840284399051, 1095.584418362542, 1125.6720187791402, 1159.2212698617984, 1191.7754894467726, 1226.763684148502, 1257.0148710088918, 1284.711486815413, 1309.654631944295, 77.5762693635088, 96.14626175729917, 118.16706148054142, 143.43479037303194, 168.56489845954312, 193.01531819169642, 224.18976181297487, 251.12685242869256, 282.354925449836, 313.2373480967372, 347.90403188993685, 379.69440083428026, 410.74500955699654, 444.92294825375467, 482.979014345696, 522.000025676859, 562.1516494310146, 600.0533820654026, 640.1680528072001, 682.6318665034751, 728.9397527871284, 770.8398530643487, 814.0671695583449, 855.9249334644215, 906.8348536782789, 951.1307427412912, 1031.5024861225272, 1077.3738845495457, 1126.4296841546425, 1168.6913855497542, 1212.6540538006789, 1252.88293999015, 1291.2718786793005, 1335.9768678300363]","dist_absent",56,39,"yes","no",1680,NA,NA,NA,NA,"NR","NR","lp",NA,"Left",NA,"Left",NA,NA,"practice",7,"NR","in"
"9",1071.49430000027,9890.91349999944,9890.91349999944,8,8,"y",1,"['5', '3', '7', 'space']","y","#000000","no",77990.6028000005,1,"neutral","psycho","psycho","psycho",0,"uniform",1,0,0,0,NA,0,0,NA,0,0,0,0,8,8,NA,NA,NA,NA,0,0,0,NA,8,0,8,73.2296414732588,"Tue Sep 21 14:39:05 2021","The main experiment item","yes","red","no","None","diamond",NA,"pinging_target_expectations 4.0.osexp","C:\Users\etp-cp-ping\Desktop\LocalPC-EXP",75,"no","mono","no",18,"no","white","no","yes",1050,NA,100,"psycho",8,0,8,"C:/Users/etp-cp-ping/Desktop/LocalPC-EXP/subject-16.csv","psycho",6,9,9,"Lentiform Loewenfeld","3.3.8","['hori', 'vert', 'hori', 'hori', 'vert', 'vert', 'vert', 'hori']","no",209,"None","yes",0,NA,2,"legacy",NA,1024,2,48000,-16,"experiment",16,"even","green","no",6,"circle",12861.3495999998,12980.5648000001,12980.7072000003,NA,15253.4223000002,NA,NA,6987.99040000085,1636.04060000034,NA,6988.01249999997,80620.8569999999,83502.1448000007,NA,NA,NA,NA,1636.11889999993,55416.8371000014,NA,NA,80620.8712000007,55768.6939000014,80620.8058000011,"New experiment",19,"[0]","dist_absent",56,79,"yes","yes",1680,NA,NA,NA,NA,"NR","R","lp",NA,"Right",NA,"Right",NA,NA,"practice",2,"NR","in"
"10",1927.30370000027,11818.2171999997,11818.2171999997,9,9,"y",1,"['5', '3', '7', 'space']","y","#000000","no",83894.2084000009,1,"neutral","psycho","psycho","psycho",0,"uniform",1,0,0,0,NA,0,0,NA,0,0,0,0,9,9,NA,NA,NA,NA,0,0,0,NA,9,0,9,73.2296414732588,"Tue Sep 21 14:39:05 2021","The main experiment item","yes","green","no","4","diamond",NA,"pinging_target_expectations 4.0.osexp","C:\Users\etp-cp-ping\Desktop\LocalPC-EXP",75,"no","mono","no",18,"no","white","no","yes",1050,NA,100,"psycho",9,0,9,"C:/Users/etp-cp-ping/Desktop/LocalPC-EXP/subject-16.csv","psycho",7,10,10,"Lentiform Loewenfeld","3.3.8","['vert', 'hori', 'vert', 'vert', 'hori', 'hori', 'hori', 'vert']","no",209,"None","yes",0,NA,2,"legacy",NA,1024,2,48000,-16,"experiment",16,"even","red","no",0,"circle",12861.3495999998,12980.5648000001,12980.7072000003,NA,15253.4223000002,NA,NA,6987.99040000085,1636.04060000034,NA,6988.01249999997,83532.6444000002,87342.1352000005,NA,NA,NA,NA,1636.11889999993,55416.8371000014,NA,NA,83532.6585000003,55768.6939000014,83532.5929999999,"New experiment",19,"[0, 81.15293601243424, 94.14128594166482, 108.94863374509325, 128.28409419426393, 146.73818058071137, 161.0596430007102, 179.78688757483943, 200.52632946472377, 220.9880334049885, 235.4101917066795, 257.9950047398277, 278.6173148597356, 298.8354150663075, 317.9800082658327, 334.94977482493493, 361.090816139099, 375.966716582119, 400.06028233804375, 419.5476278344152, 440.52592549164865, 464.1959190731645, 487.4627586461295, 508.64834723032067, 530.9112736473415, 556.6259749826551, 579.2963151232129, 603.0186471382016, 628.4467866862651, 656.6859346447544, 678.8409707180273, 708.2708505123936, 734.4149031712251, 763.0723696819788, 787.1088952852141, 814.2642124838449, 844.3685460407493, 874.5104344717678, 901.5461462636142, 930.8049594447045, 958.2513078845764, 1010.585301736059, 1041.908413742281, 1069.1075080366031, 1094.9450523701917, 1122.4143472941353, 1147.644209898978, 1172.2158702734735, 1204.2293830179658, 1227.5129336787597, 1245.9916679924243]","dist_present",56,15,"yes","no",1680,NA,NA,NA,NA,"NR","NR","lp",NA,NA,NA,NA,NA,NA,"practice",6,"NR","in"
"11",1361.89600000034,13180.1132000001,13180.1132000001,10,10,"y",1,"['5', '3', '7', 'space']","y","#000000","no",88562.2927000004,1,"neutral","psycho","psycho","psycho",0,"uniform",1,0,0,0,NA,0,0,NA,0,0,0,0,10,10,NA,NA,NA,NA,0,0,0,NA,10,0,10,73.2296414732588,"Tue Sep 21 14:39:05 2021","The main experiment item","yes","green","no","0","diamond",NA,"pinging_target_expectations 4.0.osexp","C:\Users\etp-cp-ping\Desktop\LocalPC-EXP",75,"no","mono","no",18,"no","white","no","yes",1050,NA,100,"psycho",10,0,10,"C:/Users/etp-cp-ping/Desktop/LocalPC-EXP/subject-16.csv","psycho",10,11,11,"Lentiform Loewenfeld","3.3.8","['vert', 'hori', 'hori', 'vert', 'hori', 'hori', 'vert', 'vert']","no",209,"None","yes",0,NA,2,"legacy",NA,1024,2,48000,-16,"experiment",16,"even","red","no",4,"circle",12861.3495999998,12980.5648000001,12980.7072000003,NA,15253.4223000002,NA,NA,6987.99040000085,1636.04060000034,NA,6988.01249999997,87374.1804000001,90638.1158000004,NA,NA,NA,NA,1636.11889999993,55416.8371000014,NA,NA,87374.1946000009,55768.6939000014,87374.1289000009,"New experiment",19,"[0, 89.15257262723821, 120.8056290079233, 156.5197783216534, 194.54101816589744, 237.56617774547348, 280.05418530445695, 325.41325790885156, 373.4994492484123, 422.2700710739577, 473.5629451535049, 526.4557829266902, 580.5443353526595, 639.358519339849, 695.2758371443654, 754.8274375113315, 815.9691240595196, 877.4835923112141, 946.6137760567983, 1052.362014902741, 1125.1902497770598, 1198.3371406581143, 1274.0868523472877, 1331.0877930695965, 77.15651416583667, 106.24171216527593, 134.9650882411689, 169.26301463994017, 203.5726133622437, 234.6483317899728, 273.66513869992474, 313.5873737596038, 347.8088161445752, 387.63721638077817, 427.5746138171203, 468.04566040831, 508.3805591674944, 549.1715873397959, 595.402905506225, 641.0983281638739, 687.9121956583907, 739.0036031632621, 788.7758950316677, 837.7537479327046, 885.4347894713947, 940.1929621644252, 1012.83280046933, 1067.590660594625, 1118.913755431905, 1164.4121140379646, 1211.7333107170373, 1254.146998267811, 1303.5803879045945]","dist_present",56,51,"yes","no",1680,NA,NA,NA,NA,"NR","NR","lp",NA,NA,NA,NA,NA,NA,"practice",0,"NR","in"
"12",1180.62549999922,14360.7386999993,14360.7386999993,10,10,"y",1,"['5', '3', '7', 'space']","y","#000000","no",91457.3528000001,1,"neutral","psycho","psycho","psycho",0,"uniform",0,0,0,0,NA,0,0,NA,0,0,0,0,11,11,NA,NA,NA,NA,0,0,0,NA,11,0,11,73.2296414732588,"Tue Sep 21 14:39:05 2021","The main experiment item","yes","red","no","5","diamond",NA,"pinging_target_expectations 4.0.osexp","C:\Users\etp-cp-ping\Desktop\LocalPC-EXP",75,"no","mono","no",18,"no","white","no","yes",1050,NA,100,"psycho",11,0,11,"C:/Users/etp-cp-ping/Desktop/LocalPC-EXP/subject-16.csv","psycho",11,12,12,"Lentiform Loewenfeld","3.3.8","['vert', 'hori', 'vert', 'vert', 'hori', 'vert', 'hori', 'hori']","no",209,"None","yes",0,NA,2,"legacy",NA,1024,2,48000,-16,"experiment",16,"even","green","no",3,"circle",12861.3495999998,12980.5648000001,12980.7072000003,NA,15253.4223000002,NA,NA,6987.99040000085,1636.04060000034,NA,6988.01249999997,90668.7987000005,93662.1253000012,NA,NA,NA,NA,1636.11889999993,55416.8371000014,NA,NA,90668.8126999998,55768.6939000014,90668.7483000005,"New experiment",19,"[0, 73.37063445275636, 93.58404501541118, 114.52937027363168, 132.90845343554957, 156.15842085774915, 176.728963267258, 200.4517478358569, 223.0570333720044, 250.97810608961356, 271.68485821373616, 298.11895120878336, 323.4839026571818, 349.2561766647473, 375.82062346027067, 403.57719501833645, 432.9457240809753, 459.9769102030258, 488.73968338496366, 516.2389285165548, 545.8994870853059, 576.2363987430251, 602.7902873349668, 630.322665258729, 655.1827842099473, 682.404326409315, 711.9539376709962, 737.3967465723396, 767.8396463200767, 790.6659779878977, 824.235923999097, 853.6253812239457, 884.396993621452, 915.9710653740881, 942.4859712061559, 1010.1469725018684, 1042.0346396003135, 1071.3610446931232, 1092.4656966198145, 1121.4447236916758, 1147.4357456862308, 1176.611650571151, 1201.1970570409133, 1225.0685785152727, 1248.3123158040567, 1265.3133795995957]","dist_present",56,46,"yes","no",1680,NA,NA,NA,NA,"NR","NR","lp",NA,NA,NA,NA,NA,NA,"practice",4,"NR","in"
"13",892.851599999631,15253.5902999989,15253.5902999989,11,11,"y",1,"['5', '3', '7', 'space']","y","#000000","no",94189.4010000015,1,"neutral","psycho","psycho","psycho",0,"uniform",1,0,0,0,NA,0,0,NA,0,0,0,0,12,12,NA,NA,NA,NA,0,0,0,NA,12,0,12,73.2296414732588,"Tue Sep 21 14:39:05 2021","The main experiment item","yes","green","no","2","circle",NA,"pinging_target_expectations 4.0.osexp","C:\Users\etp-cp-ping\Desktop\LocalPC-EXP",75,"no","mono","no",18,"no","white","no","yes",1050,NA,100,"psycho",12,0,12,"C:/Users/etp-cp-ping/Desktop/LocalPC-EXP/subject-16.csv","psycho",12,13,13,"Lentiform Loewenfeld","3.3.8","['vert', 'hori', 'hori', 'vert', 'vert', 'hori', 'vert', 'hori']","yes",109,"circles","yes",0,NA,2,"legacy",NA,1024,2,48000,-16,"experiment",16,"even","red","no",6,"diamond",12861.3495999998,12980.5648000001,12980.7072000003,NA,15253.4223000002,NA,NA,6987.99040000085,1636.04060000034,NA,6988.01249999997,93692.6703000008,96366.1217000008,NA,NA,NA,NA,1636.11889999993,55416.8371000014,NA,NA,93692.6844000009,55768.6939000014,93692.6203000003,"New experiment",19,"[0]","dist_present",56,73,"yes","yes",1680,NA,NA,NA,NA,"NR","NR","lp",NA,NA,NA,NA,NA,NA,"practice",3,"NR","in"
"14",827.770599998985,16081.3608999979,16081.3608999979,12,12,"y",1,"['5', '3', '7', 'space']","y","#000000","no",94189.4010000015,1,"neutral","psycho","psycho","psycho",0,"uniform",1,0,0,0,NA,0,0,NA,0,0,0,0,13,13,NA,NA,NA,NA,0,0,0,NA,13,0,13,73.2296414732588,"Tue Sep 21 14:39:05 2021","The main experiment item","yes","green","no","None","diamond",NA,"pinging_target_expectations 4.0.osexp","C:\Users\etp-cp-ping\Desktop\LocalPC-EXP",75,"no","mono","no",18,"no","white","no","yes",1050,NA,100,"psycho",13,0,13,"C:/Users/etp-cp-ping/Desktop/LocalPC-EXP/subject-16.csv","psycho",12,14,14,"Lentiform Loewenfeld","3.3.8","['hori', 'vert', 'vert', 'hori', 'hori', 'vert', 'vert', 'hori']","yes",109,"circles","yes",0,NA,2,"legacy",NA,1024,2,48000,-16,"experiment",16,"even","red","no",5,"circle",12861.3495999998,12980.5648000001,12980.7072000003,NA,15253.4223000002,NA,NA,6987.99040000085,1636.04060000034,NA,6988.01249999997,96396.5399000008,99182.0970999997,NA,NA,NA,NA,1636.11889999993,55416.8371000014,NA,NA,96396.5537000004,55768.6939000014,96396.4899000002,"New experiment",19,"[0]","dist_absent",56,69,"yes","yes",1680,NA,NA,NA,NA,"NR","NR","lp",NA,"Right",NA,NA,NA,NA,"practice",6,"NR","in"
"15",1544.88289999972,17626.2437999976,17626.2437999976,13,13,"y",1,"['5', '3', '7', 'space']","y","#000000","no",94189.4010000015,1,"neutral","psycho","psycho","psycho",0,"uniform",1,0,0,0,NA,0,0,NA,0,0,0,0,14,14,NA,NA,NA,NA,0,0,0,NA,14,0,14,73.2296414732588,"Tue Sep 21 14:39:05 2021","The main experiment item","yes","red","no","6","diamond",NA,"pinging_target_expectations 4.0.osexp","C:\Users\etp-cp-ping\Desktop\LocalPC-EXP",75,"no","mono","no",18,"no","white","no","yes",1050,NA,100,"psycho",14,0,14,"C:/Users/etp-cp-ping/Desktop/LocalPC-EXP/subject-16.csv","psycho",12,15,15,"Lentiform Loewenfeld","3.3.8","['vert', 'vert', 'vert', 'hori', 'hori', 'vert', 'hori', 'hori']","no",209,"None","yes",0,NA,2,"legacy",NA,1024,2,48000,-16,"experiment",16,"even","green","no",3,"circle",12861.3495999998,12980.5648000001,12980.7072000003,NA,15253.4223000002,NA,NA,6987.99040000085,1636.04060000034,NA,6988.01249999997,99212.6121000001,102766.1269,NA,NA,NA,NA,1636.11889999993,55416.8371000014,NA,NA,99212.6262000002,55768.6939000014,99212.5608000006,"New experiment",19,"[0]","dist_present",56,47,"yes","yes",1680,NA,NA,NA,NA,"NR","NR","lp",NA,NA,NA,NA,NA,NA,"practice",5,"NR","in"
"16",1018.10120000118,18644.3449999988,18644.3449999988,14,14,"y",1,"['5', '3', '7', 'space']","y","#000000","no",104081.609300001,1,"neutral","psycho","psycho","psycho",0,"uniform",1,0,0,0,NA,0,0,NA,0,0,0,0,15,15,NA,NA,NA,NA,0,0,0,NA,15,0,15,73.2296414732588,"Tue Sep 21 14:39:05 2021","The main experiment item","yes","red","no","4","diamond",NA,"pinging_target_expectations 4.0.osexp","C:\Users\etp-cp-ping\Desktop\LocalPC-EXP",75,"no","mono","no",18,"no","white","no","yes",1050,NA,100,"psycho",15,0,15,"C:/Users/etp-cp-ping/Desktop/LocalPC-EXP/subject-16.csv","psycho",13,16,16,"Lentiform Loewenfeld","3.3.8","['hori', 'hori', 'hori', 'vert', 'hori', 'vert', 'vert', 'vert']","no",209,"None","yes",0,NA,2,"legacy",NA,1024,2,48000,-16,"experiment",16,"even","green","no",5,"circle",12861.3495999998,12980.5648000001,12980.7072000003,NA,15253.4223000002,NA,NA,6987.99040000085,1636.04060000034,NA,6988.01249999997,102796.567400001,105758.1056,NA,NA,NA,NA,1636.11889999993,55416.8371000014,NA,NA,102796.581000001,55768.6939000014,102796.517700001,"New experiment",19,"[0, 95.4309125356318, 124.57320568332119, 158.54729542081333, 191.70563571945965, 227.92018379394312, 267.00414569508115, 303.3885072929134, 345.4037098396547, 387.07582098209775, 429.6853519491777, 473.46453149418534, 515.855252297815, 562.5346721519038, 608.9348180686095, 655.4879028935965, 704.9164013592496, 756.0308228715536, 809.2616933780696, 862.3526484114076, 915.1032206950032, 998.9147849700878, 1054.0836893542182, 1105.5668194739646, 1156.6719053098877, 1211.5792886741433, 1253.3246796216968, 1297.8485108476173, 1350.4791799084544]","dist_present",56,65,"yes","no",1680,NA,NA,NA,NA,"NR","NR","lp",NA,"Right",NA,NA,NA,NA,"practice",3,"NR","in"
"17",2000.25660000028,20644.6015999991,20644.6015999991,14,14,"y",1,"['5', '3', '7', 'space']","y","#000000","no",106097.142500001,1,"neutral","psycho","psycho","psycho",0,"uniform",0,0,0,0,NA,0,0,NA,0,0,0,0,16,16,NA,NA,NA,NA,0,0,0,NA,16,0,16,73.2296414732588,"Tue Sep 21 14:39:05 2021","The main experiment item","yes","red","no","1","circle",NA,"pinging_target_expectations 4.0.osexp","C:\Users\etp-cp-ping\Desktop\LocalPC-EXP",75,"no","mono","no",18,"no","white","no","yes",1050,NA,100,"psycho",16,0,16,"C:/Users/etp-cp-ping/Desktop/LocalPC-EXP/subject-16.csv","psycho",14,17,17,"Lentiform Loewenfeld","3.3.8","['hori', 'vert', 'vert', 'hori', 'vert', 'vert', 'hori', 'hori']","yes",109,"circles","yes",0,NA,2,"legacy",NA,1024,2,48000,-16,"experiment",16,"even","green","no",4,"diamond",12861.3495999998,12980.5648000001,12980.7072000003,NA,15253.4223000002,NA,NA,6987.99040000085,1636.04060000034,NA,6988.01249999997,105788.687300001,109637.4094,NA,NA,NA,NA,1636.11889999993,55416.8371000014,NA,NA,105788.701700001,55768.6939000014,105788.6366,"New experiment",19,"[0, 90.50373066163111, 110.48479275969382, 133.26821214073556, 155.67875751685742, 179.1729057265232, 202.06399114774368, 230.04009689443265, 254.88518583665297, 280.25701854781994, 307.1160204222502, 333.08289061656257, 361.8401859704167, 388.8747113442162, 420.73016460806986, 448.90358558424475, 482.5226562367191, 511.0869111793132, 541.3505182895315, 575.706947081983, 605.1605480417987, 639.9027885880589, 674.039997342577, 702.7893474972192, 734.3363415589482, 764.4978600860665, 794.9592208364965, 822.1946302130501, 853.3008202311361, 882.5575412311567, 912.9360543253355, 956.9719984132613, 973.7933596557182, 1029.7561897304072, 1062.1092593646504, 1090.9724498438811, 1120.1749743300086, 1151.0051134599441, 1181.0240698228708, 1198.7721937506594, 1209.5974783119286, 1230.9876086714426, 1257.7328233634603]","dist_present",56,52,"yes","no",1680,NA,NA,NA,NA,"NR","NR","lp","Left",NA,NA,NA,NA,NA,"practice",5,"NR","in"
"18",1259.8324999999,21904.434099999,21904.434099999,15,15,"y",1,"['5', '3', '7', 'space']","y","#000000","no",111311.2282,1,"neutral","psycho","psycho","psycho",0,"uniform",1,0,0,0,NA,0,0,NA,0,0,0,0,17,17,NA,NA,NA,NA,0,0,0,NA,17,0,17,73.2296414732588,"Tue Sep 21 14:39:05 2021","The main experiment item","yes","green","no","None","circle",NA,"pinging_target_expectations 4.0.osexp","C:\Users\etp-cp-ping\Desktop\LocalPC-EXP",75,"no","mono","no",18,"no","white","no","yes",1050,NA,100,"psycho",17,0,17,"C:/Users/etp-cp-ping/Desktop/LocalPC-EXP/subject-16.csv","psycho",15,18,18,"Lentiform Loewenfeld","3.3.8","['hori', 'vert', 'hori', 'hori', 'vert', 'hori', 'vert', 'vert']","no",209,"None","yes",0,NA,2,"legacy",NA,1024,2,48000,-16,"experiment",16,"even","red","no",1,"diamond",12861.3495999998,12980.5648000001,12980.7072000003,NA,15253.4223000002,NA,NA,6987.99040000085,1636.04060000034,NA,6988.01249999997,109667.596000001,113006.100800001,NA,NA,NA,NA,1636.11889999993,55416.8371000014,NA,NA,109667.612000001,55768.6939000014,109667.547200001,"New experiment",19,"[0, 85.21695151602111, 109.86406715552778, 136.88454163731603, 165.24433119383966, 195.1239567331806, 228.21226501402762, 260.79788864778925, 294.62237073149987, 334.5311474121167, 369.32438316471877, 406.22130348767746, 445.59038968638066, 486.9576331012252, 526.3559849341293, 568.3704411938173, 604.3328886670902, 647.2509879606336, 684.942058481274, 727.809956521964, 767.7719535711306, 811.7082529262915, 855.0768971268022, 900.456475611241, 964.5864911586644, 1013.9237687315692, 1055.7783048302313, 1107.1164947948691, 1156.2285715708626]","dist_absent",56,29,"yes","no",1680,NA,NA,NA,NA,"NR","NR","lp",NA,"Left",NA,NA,NA,NA,"practice",4,"NR","in"
"19",1479.52309999891,23383.9571999979,23383.9571999979,16,16,"y",1,"['5', '3', '7', 'space']","y","#000000","no",111311.2282,1,"neutral","psycho","psycho","psycho",0,"uniform",1,0,0,0,NA,0,0,NA,0,0,0,0,18,18,NA,NA,NA,NA,0,0,0,NA,18,0,18,73.2296414732588,"Tue Sep 21 14:39:05 2021","The main experiment item","yes","red","no","3","diamond",NA,"pinging_target_expectations 4.0.osexp","C:\Users\etp-cp-ping\Desktop\LocalPC-EXP",75,"no","mono","no",18,"no","white","no","yes",1050,NA,100,"psycho",18,0,18,"C:/Users/etp-cp-ping/Desktop/LocalPC-EXP/subject-16.csv","psycho",15,19,19,"Lentiform Loewenfeld","3.3.8","['vert', 'hori', 'hori', 'vert', 'vert', 'vert', 'hori', 'hori']","no",209,"None","yes",0,NA,2,"legacy",NA,1024,2,48000,-16,"experiment",16,"even","green","no",0,"circle",12861.3495999998,12980.5648000001,12980.7072000003,NA,15253.4223000002,NA,NA,6987.99040000085,1636.04060000034,NA,6988.01249999997,113036.6801,116526.095500001,NA,NA,NA,NA,1636.11889999993,55416.8371000014,NA,NA,113036.6944,55768.6939000014,113036.629400001,"New experiment",19,"[0]","dist_present",56,14,"yes","yes",1680,NA,NA,NA,NA,"NR","NR","lp","Left",NA,NA,NA,NA,NA,"practice",1,"NR","in"
"20",2000.77929999861,25384.7364999965,25384.7364999965,16,16,"y",1,"['5', '3', '7', 'space']","y","#000000","no",111311.2282,1,"neutral","psycho","psycho","psycho",0,"uniform",0,0,0,0,NA,0,0,NA,0,0,0,0,19,19,NA,NA,NA,NA,0,0,0,NA,19,0,19,73.2296414732588,"Tue Sep 21 14:39:05 2021","The main experiment item","yes","green","no","3","diamond",NA,"pinging_target_expectations 4.0.osexp","C:\Users\etp-cp-ping\Desktop\LocalPC-EXP",75,"no","mono","no",18,"no","white","no","yes",1050,NA,100,"psycho",19,0,19,"C:/Users/etp-cp-ping/Desktop/LocalPC-EXP/subject-16.csv","psycho",15,20,20,"Lentiform Loewenfeld","3.3.8","['vert', 'vert', 'vert', 'hori', 'vert', 'hori', 'hori', 'hori']","yes",109,"diamond","yes",0,NA,2,"legacy",NA,1024,2,48000,-16,"experiment",16,"even","red","no",6,"circle",12861.3495999998,12980.5648000001,12980.7072000003,NA,15253.4223000002,NA,NA,6987.99040000085,1636.04060000034,NA,6988.01249999997,116556.802200001,120393.0698,NA,NA,NA,NA,1636.11889999993,55416.8371000014,NA,NA,116556.816400001,55768.6939000014,116556.7536,"New experiment",19,"[0, 365.0690477886627, 353.90207877646725, 344.51500294033315, 336.6608142878442, 330.9698868344546, 322.08273754080255, 316.9773264346102, 307.97510429930014, 298.77291873631316, 294.3142758286518, 284.3227793957099, 278.62588950725967, 271.53095550932176, 264.1245102763319, 259.22935119032223, 249.33369951408423, 245.23263646245837, 238.0060714383229, 234.10768603809353, 225.90436272598635, 217.60006750891316, 212.70059988836712, 205.30476140643472, 198.8100479012178, 194.4160988503475, 189.2207297068203, 182.1298740674708, 178.13840516307457, 173.14618548455567, 168.0550204397943, 159.56631779730716, 157.27327719833215, 152.47559583165923, 148.7774630553428, 144.27658727338337, 138.99362047664027, 133.0179544866839, 129.82963076625705, 124.75413447009906, 120.08153701642794, 116.11122107350471, 112.13788514879919, 109.44374119972903, 101.30849118283612, 101.27072805766097, 94.0914346329665, 91.51612893621264, 88.24541972002424, 81.05748358129829, 80.37228448769064, 75.83592922633204, 73.75121549581081, 75.60162900754418, 75.54137938904744, 73.33606312243093, 74.4162720636546, 76.21268358777054, 75.46342497065105]","dist_present",56,74,"yes","yes",1680,NA,NA,NA,NA,"NR","R","lp",NA,NA,NA,NA,NA,NA,"practice",0,"NR","in"
"21",1215.331899999,26600.0683999955,26600.0683999955,16,16,"y",1,"['5', '3', '7', 'space']","y","#000000","no",122111.4447,1,"neutral","psycho","psycho","psycho",0,"uniform",0,0,0,0,NA,0,0,NA,0,0,0,0,20,20,NA,NA,NA,NA,0,0,0,NA,20,0,20,73.2296414732588,"Tue Sep 21 14:39:05 2021","The main experiment item","yes","red","no","6","circle",NA,"pinging_target_expectations 4.0.osexp","C:\Users\etp-cp-ping\Desktop\LocalPC-EXP",75,"no","mono","no",18,"no","white","no","yes",1050,NA,100,"psycho",20,0,20,"C:/Users/etp-cp-ping/Desktop/LocalPC-EXP/subject-16.csv","psycho",18,21,21,"Lentiform Loewenfeld","3.3.8","['hori', 'vert', 'vert', 'hori', 'hori', 'hori', 'vert', 'vert']","yes",109,"diamond","yes",0,NA,2,"legacy",NA,1024,2,48000,-16,"experiment",16,"even","green","no",5,"diamond",12861.3495999998,12980.5648000001,12980.7072000003,NA,15253.4223000002,NA,NA,6987.99040000085,1636.04060000034,NA,6988.01249999997,120424.1306,123486.081300001,NA,NA,NA,NA,1636.11889999993,55416.8371000014,NA,NA,120424.1461,55768.6939000014,120423.961600001,"New experiment",19,"[0, 73.87753614380921, 94.92229598672155, 113.69091644640335, 141.35094426058683, 166.24378901990912, 193.00747095067004, 220.6299593214768, 249.72353135869787, 278.78394688454983, 312.66034445329404, 342.6590614197261, 376.29950812736234, 406.71942536800475, 442.84809077595315, 479.17010135770886, 513.1158533865276, 548.6732928551224, 587.3594650128122, 628.1138768779613, 668.7465056512826, 711.1956330310147, 749.1382911372572, 793.440808960707, 830.8666056925631, 867.8393966815635, 905.6714677897058, 941.6396712535623, 1017.3407546967696, 1055.7951555918846, 1094.5689790963381, 1130.7895004707993, 1172.3864032249776, 1206.2601399347138, 1242.1490801546747, 1274.3407308106907, 1310.2362255750231, 78.9134448607172, 100.52904927698911, 120.76041340724765, 143.47279386045895, 169.8759894511075, 194.72658086760384, 220.80275547132834, 248.17171068314582, 277.53718212769195, 307.2961339695595, 339.3420678729952, 368.2786881208632, 401.3616918875598, 432.22427969065126, 467.092705129879, 498.6627549813267, 534.0163154081259, 569.6785857541906, 606.3351226403333, 644.2088004855626, 680.7491358151613, 726.8761134399393, 766.4856757725815, 804.255529364687, 841.1674333842988, 883.859314937097, 922.4524133750243, 966.3823729113808, 1042.8689950773096, 1082.4696849149016, 1120.426306041816, 1164.8897108135934, 1199.1545246197497, 1238.5678837654855, 1269.6564430771298, 1298.9063103929834, 1338.8451879219194]","dist_present",56,67,"yes","no",1680,NA,NA,NA,NA,"NR","NR","lp",NA,NA,NA,NA,NA,NA,"practice",6,"NR","in"
"22",2000.81189999946,28600.880299995,28600.880299995,17,17,"y",1,"['5', '3', '7', 'space']","y","#000000","no",122111.4447,1,"neutral","psycho","psycho","psycho",0,"uniform",1,0,0,0,NA,0,0,NA,0,0,0,0,21,21,NA,NA,NA,NA,0,0,0,NA,21,0,21,73.2296414732588,"Tue Sep 21 14:39:05 2021","The main experiment item","yes","red","no","1","diamond",NA,"pinging_target_expectations 4.0.osexp","C:\Users\etp-cp-ping\Desktop\LocalPC-EXP",75,"no","mono","no",18,"no","white","no","yes",1050,NA,100,"psycho",21,0,21,"C:/Users/etp-cp-ping/Desktop/LocalPC-EXP/subject-16.csv","psycho",18,22,22,"Lentiform Loewenfeld","3.3.8","['vert', 'hori', 'vert', 'hori', 'vert', 'vert', 'hori', 'hori']","yes",109,"circles","yes",0,NA,2,"legacy",NA,1024,2,48000,-16,"experiment",16,"even","green","no",6,"circle",12861.3495999998,12980.5648000001,12980.7072000003,NA,15253.4223000002,NA,NA,6987.99040000085,1636.04060000034,NA,6988.01249999997,123517.162600001,127470.2591,NA,NA,NA,NA,1636.11889999993,55416.8371000014,NA,NA,123517.1766,55768.6939000014,123517.1121,"New experiment",19,"[0]","dist_present",56,72,"yes","yes",1680,NA,NA,NA,NA,"NR","NR","lp",NA,NA,NA,NA,NA,NA,"practice",5,"NR","in"
"23",975.397299998804,29576.2775999938,29576.2775999938,18,18,"y",1,"['5', '3', '7', 'space']","y","#000000","no",122111.4447,1,"neutral","psycho","psycho","psycho",0,"uniform",1,0,0,0,NA,0,0,NA,0,0,0,0,22,22,NA,NA,NA,NA,0,0,0,NA,22,0,22,73.2296414732588,"Tue Sep 21 14:39:05 2021","The main experiment item","yes","red","no","None","circle",NA,"pinging_target_expectations 4.0.osexp","C:\Users\etp-cp-ping\Desktop\LocalPC-EXP",75,"no","mono","no",18,"no","white","no","yes",1050,NA,100,"psycho",22,0,22,"C:/Users/etp-cp-ping/Desktop/LocalPC-EXP/subject-16.csv","psycho",18,23,23,"Lentiform Loewenfeld","3.3.8","['hori', 'hori', 'vert', 'vert', 'hori', 'vert', 'hori', 'vert']","yes",109,"circles","yes",0,NA,2,"legacy",NA,1024,2,48000,-16,"experiment",16,"even","green","no",2,"diamond",12861.3495999998,12980.5648000001,12980.7072000003,NA,15253.4223000002,NA,NA,6987.99040000085,1636.04060000034,NA,6988.01249999997,127501.014900001,130334.052800001,NA,NA,NA,NA,1636.11889999993,55416.8371000014,NA,NA,127501.0286,55768.6939000014,127500.964800001,"New experiment",19,"[0]","dist_absent",56,39,"yes","yes",1680,NA,NA,NA,NA,"NR","NR","lp",NA,"Left",NA,"Left",NA,NA,"practice",6,"NR","in"
"24",2000.16349999895,31576.4410999927,31576.4410999927,18,18,"y",1,"['5', '3', '7', 'space']","y","#000000","no",131209.599600001,1,"neutral","psycho","psycho","psycho",0,"uniform",0,0,0,0,NA,0,0,NA,0,0,0,0,23,23,NA,NA,NA,NA,0,0,0,NA,23,0,23,73.2296414732588,"Tue Sep 21 14:39:05 2021","The main experiment item","yes","red","no","0","diamond",NA,"pinging_target_expectations 4.0.osexp","C:\Users\etp-cp-ping\Desktop\LocalPC-EXP",75,"no","mono","no",18,"no","white","no","yes",1050,NA,100,"psycho",23,0,23,"C:/Users/etp-cp-ping/Desktop/LocalPC-EXP/subject-16.csv","psycho",19,24,24,"Lentiform Loewenfeld","3.3.8","['vert', 'vert', 'vert', 'hori', 'vert', 'hori', 'hori', 'hori']","yes",109,"circles","yes",0,NA,2,"legacy",NA,1024,2,48000,-16,"experiment",16,"even","green","no",1,"circle",12861.3495999998,12980.5648000001,12980.7072000003,NA,15253.4223000002,NA,NA,6987.99040000085,1636.04060000034,NA,6988.01249999997,130364.521900001,134388.9729,NA,NA,NA,NA,1636.11889999993,55416.8371000014,NA,NA,130364.536300001,55768.6939000014,130364.4704,"New experiment",19,"[0, 85.19366930155724, 111.0204367689627, 139.36343355173452, 167.7901693199286, 201.41194015914863, 234.594205230926, 269.2641073678457, 302.9612000493656, 339.3754336258463, 378.5293969630834, 414.6240361284538, 456.7324166938291, 500.3151506800489, 550.1959765903879, 596.5457848668326, 644.9044714414365, 694.1525128009223, 747.6842644111538, 801.1387208218063, 856.1730052589164, 907.3092971061387, 960.3329352995742, 1052.835707074618, 1111.0217721003748, 1162.7323922873309, 1218.2244885706507, 1274.7421990516239, 1326.9640018661162]","dist_present",56,21,"yes","no",1680,NA,NA,NA,NA,"NR","NR","lp",NA,"Left",NA,NA,NA,NA,"practice",2,"NR","in"
"25",1232.44479999994,32808.8858999927,32808.8858999927,19,19,"y",1,"['5', '3', '7', 'space']","y","#000000","no",135609.1849,1,"neutral","psycho","psycho","psycho",0,"uniform",1,0,0,0,NA,0,0,NA,0,0,0,0,24,24,NA,NA,NA,NA,0,0,0,NA,24,0,24,73.2296414732588,"Tue Sep 21 14:39:05 2021","The main experiment item","yes","red","no","0","diamond",NA,"pinging_target_expectations 4.0.osexp","C:\Users\etp-cp-ping\Desktop\LocalPC-EXP",75,"no","mono","no",18,"no","white","no","yes",1050,NA,100,"psycho",24,0,24,"C:/Users/etp-cp-ping/Desktop/LocalPC-EXP/subject-16.csv","psycho",21,25,25,"Lentiform Loewenfeld","3.3.8","['hori', 'vert', 'hori', 'vert', 'vert', 'hori', 'vert', 'hori']","no",209,"None","yes",0,NA,2,"legacy",NA,1024,2,48000,-16,"experiment",16,"even","green","no",7,"circle",12861.3495999998,12980.5648000001,12980.7072000003,NA,15253.4223000002,NA,NA,6987.99040000085,1636.04060000034,NA,6988.01249999997,134419.736600001,137806.0551,NA,NA,NA,NA,1636.11889999993,55416.8371000014,NA,NA,134419.7501,55768.6939000014,134419.687400001,"New experiment",19,"[0]","dist_present",56,81,"yes","yes",1680,NA,NA,NA,NA,"NR","R","lp",NA,"Right",NA,NA,NA,NA,"practice",1,"NR","in"
"26",1424.30960000094,34233.1954999936,34233.1954999936,20,20,"y",1,"['5', '3', '7', 'space']","y","#000000","no",135609.1849,1,"neutral","psycho","psycho","psycho",0,"uniform",1,0,0,0,NA,0,0,NA,0,0,0,0,25,25,NA,NA,NA,NA,0,0,0,NA,25,0,25,73.2296414732588,"Tue Sep 21 14:39:05 2021","The main experiment item","yes","red","no","7","circle",NA,"pinging_target_expectations 4.0.osexp","C:\Users\etp-cp-ping\Desktop\LocalPC-EXP",75,"no","mono","no",18,"no","white","no","yes",1050,NA,100,"psycho",25,0,25,"C:/Users/etp-cp-ping/Desktop/LocalPC-EXP/subject-16.csv","psycho",21,26,26,"Lentiform Loewenfeld","3.3.8","['vert', 'hori', 'vert', 'hori', 'vert', 'vert', 'hori', 'hori']","no",209,"None","yes",0,NA,2,"legacy",NA,1024,2,48000,-16,"experiment",16,"even","green","no",3,"diamond",12861.3495999998,12980.5648000001,12980.7072000003,NA,15253.4223000002,NA,NA,6987.99040000085,1636.04060000034,NA,6988.01249999997,137836.6976,141438.048600001,NA,NA,NA,NA,1636.11889999993,55416.8371000014,NA,NA,137836.711900001,55768.6939000014,137836.6472,"New experiment",19,"[0]","dist_present",56,48,"yes","yes",1680,NA,NA,NA,NA,"NR","NR","lp",NA,NA,NA,NA,NA,NA,"practice",7,"NR","in"
"27",896.530800000619,35129.7262999942,35129.7262999942,21,21,"y",1,"['5', '3', '7', 'space']","y","#000000","no",141879.316,1,"neutral","psycho","psycho","psycho",0,"uniform",1,0,0,0,NA,0,0,NA,0,0,0,0,26,26,NA,NA,NA,NA,0,0,0,NA,26,0,26,73.2296414732588,"Tue Sep 21 14:39:05 2021","The main experiment item","yes","green","no","5","circle",NA,"pinging_target_expectations 4.0.osexp","C:\Users\etp-cp-ping\Desktop\LocalPC-EXP",75,"no","mono","no",18,"no","white","no","yes",1050,NA,100,"psycho",26,0,26,"C:/Users/etp-cp-ping/Desktop/LocalPC-EXP/subject-16.csv","psycho",22,27,27,"Lentiform Loewenfeld","3.3.8","['vert', 'vert', 'hori', 'hori', 'vert', 'hori', 'hori', 'vert']","no",209,"None","yes",0,NA,2,"legacy",NA,1024,2,48000,-16,"experiment",16,"even","red","no",4,"diamond",12861.3495999998,12980.5648000001,12980.7072000003,NA,15253.4223000002,NA,NA,6987.99040000085,1636.04060000034,NA,6988.01249999997,141469.103000001,144158.0319,NA,NA,NA,NA,1636.11889999993,55416.8371000014,NA,NA,141469.117300001,55768.6939000014,141469.052600001,"New experiment",19,"[0]","dist_present",56,56,"yes","yes",1680,NA,NA,NA,NA,"NR","NR","lp","Right",NA,NA,NA,NA,NA,"practice",3,"NR","in"
"28",1275.88220000142,36405.6084999956,36405.6084999956,22,22,"y",1,"['5', '3', '7', 'space']","y","#000000","no",145281.3867,1,"neutral","psycho","psycho","psycho",0,"uniform",1,0,0,0,NA,0,0,NA,0,0,0,0,27,27,NA,NA,NA,NA,0,0,0,NA,27,0,27,73.2296414732588,"Tue Sep 21 14:39:05 2021","The main experiment item","yes","green","no","None","diamond",NA,"pinging_target_expectations 4.0.osexp","C:\Users\etp-cp-ping\Desktop\LocalPC-EXP",75,"no","mono","no",18,"no","white","no","yes",1050,NA,100,"psycho",27,0,27,"C:/Users/etp-cp-ping/Desktop/LocalPC-EXP/subject-16.csv","psycho",24,28,28,"Lentiform Loewenfeld","3.3.8","['vert', 'vert', 'hori', 'hori', 'hori', 'hori', 'vert', 'vert']","no",209,"None","yes",0,NA,2,"legacy",NA,1024,2,48000,-16,"experiment",16,"even","red","no",7,"circle",12861.3495999998,12980.5648000001,12980.7072000003,NA,15253.4223000002,NA,NA,6987.99040000085,1636.04060000034,NA,6988.01249999997,144188.7009,147470.1876,NA,NA,NA,NA,1636.11889999993,55416.8371000014,NA,NA,144188.715,55768.6939000014,144188.651,"New experiment",19,"[0, 81.51082965817298, 102.61091559868278, 128.14251552341523, 149.41521510993584, 174.1682832594828, 201.19341711116678, 226.30818123856804, 252.74906958343826, 280.18054480635976, 309.8265094445448, 339.97316299616705, 373.6120058764958, 406.2608016472648, 439.88298102962847, 473.01367970595203, 510.9816763561861, 545.9629005118861, 584.3811181811244, 624.0268081266563, 662.2842236166924, 706.8581195797509, 749.654112265857, 791.7235215744565, 836.6998733281526, 880.7326495594449, 922.9666825419649, 1003.7074305433495, 1044.6082090198054, 1088.4828927446918, 1127.8369145494012, 1174.40088487015, 1218.5531798826635, 1258.4945956606773, 1297.0831292291407]","dist_absent",56,89,"yes","no",1680,NA,NA,NA,NA,"NR","NR","lp",NA,"Right",NA,NA,NA,NA,"practice",4,"NR","in"
"29",1226.81379999995,37632.4222999956,37632.4222999956,23,23,"y",1,"['5', '3', '7', 'space']","y","#000000","no",145281.3867,1,"neutral","psycho","psycho","psycho",0,"uniform",1,0,0,0,NA,0,0,NA,0,0,0,0,28,28,NA,NA,NA,NA,0,0,0,NA,28,0,28,73.2296414732588,"Tue Sep 21 14:39:05 2021","The main experiment item","yes","green","no","2","diamond",NA,"pinging_target_expectations 4.0.osexp","C:\Users\etp-cp-ping\Desktop\LocalPC-EXP",75,"no","mono","no",18,"no","white","no","yes",1050,NA,100,"psycho",28,0,28,"C:/Users/etp-cp-ping/Desktop/LocalPC-EXP/subject-16.csv","psycho",24,29,29,"Lentiform Loewenfeld","3.3.8","['hori', 'vert', 'vert', 'vert', 'hori', 'hori', 'vert', 'hori']","no",209,"None","yes",0,NA,2,"legacy",NA,1024,2,48000,-16,"experiment",16,"even","red","no",0,"circle",12861.3495999998,12980.5648000001,12980.7072000003,NA,15253.4223000002,NA,NA,6987.99040000085,1636.04060000034,NA,6988.01249999997,147500.8837,150606.039300001,NA,NA,NA,NA,1636.11889999993,55416.8371000014,NA,NA,147500.8977,55768.6939000014,147500.8342,"New experiment",19,"[0]","dist_present",56,13,"yes","yes",1680,NA,NA,NA,NA,"NR","NR","lp","Left",NA,"Left",NA,NA,NA,"practice",7,"NR","in"
"30",1353.64149999988,38986.0637999955,38986.0637999955,23,23,"y",1,"['5', '3', '7', 'space']","y","#000000","no",151871.5008,1,"neutral","psycho","psycho","psycho",0,"uniform",0,0,0,0,NA,0,0,NA,0,0,0,0,29,29,NA,NA,NA,NA,0,0,0,NA,29,0,29,73.2296414732588,"Tue Sep 21 14:39:05 2021","The main experiment item","yes","green","no","1","circle",NA,"pinging_target_expectations 4.0.osexp","C:\Users\etp-cp-ping\Desktop\LocalPC-EXP",75,"no","mono","no",18,"no","white","no","yes",1050,NA,100,"psycho",29,0,29,"C:/Users/etp-cp-ping/Desktop/LocalPC-EXP/subject-16.csv","psycho",26,30,30,"Lentiform Loewenfeld","3.3.8","['vert', 'hori', 'hori', 'vert', 'vert', 'vert', 'hori', 'hori']","no",209,"None","yes",0,NA,2,"legacy",NA,1024,2,48000,-16,"experiment",16,"even","red","no",3,"diamond",12861.3495999998,12980.5648000001,12980.7072000003,NA,15253.4223000002,NA,NA,6987.99040000085,1636.04060000034,NA,6988.01249999997,150636.678500001,153774.161700001,NA,NA,NA,NA,1636.11889999993,55416.8371000014,NA,NA,150636.6937,55768.6939000014,150636.6192,"New experiment",19,"[0, 87.75991780892271, 115.80345799581812, 148.20002883725775, 181.5814079816818, 214.34164600790731, 250.14337590330376, 290.4823252694499, 331.1043995566383, 373.55677825084257, 414.72552011089306, 461.39056123852384, 508.4495526191332, 558.4048710389263, 608.3456208916201, 658.0070930965949, 705.8005638892115, 762.5828175887796, 811.2116707769252, 869.5145163905362, 925.4837622901324, 980.7870004162728, 1080.7850288816865, 1131.7101588999396, 1190.5612762782278, 1247.7185428054477, 1302.7516272227203, 1345.7083834204232, 76.94413859331932, 102.50875302042029, 129.56707876768627, 156.89077273795834, 186.46531432753605, 218.24123903499103, 248.48599838631495, 282.49302521810375, 319.00352662627415, 353.25414573920256, 392.8496691624366, 429.70617186135854, 468.9294412531849, 509.95199843994436, 551.2168615632891, 592.8734647132843, 636.1126245645278, 683.3344824496902, 726.5715207672537, 773.8979822203743, 821.7873800534657, 874.1924302673407, 927.2079615648576, 1007.5046314981562, 1061.4237656322873, 1104.3331077625044, 1156.5215146391547, 1207.3177807927627, 1259.4973264974017, 1303.575835262856]","dist_present",56,42,"yes","no",1680,NA,NA,NA,NA,"NR","NR","lp",NA,NA,NA,NA,NA,NA,"practice",0,"NR","in"
"31",2000.55560000145,40986.6193999969,40986.6193999969,23,23,"y",1,"['5', '3', '7', 'space']","y","#000000","no",154398.568800001,1,"neutral","psycho","psycho","psycho",0,"uniform",0,0,0,0,NA,0,0,NA,0,0,0,0,30,30,NA,NA,NA,NA,0,0,0,NA,30,0,30,73.2296414732588,"Tue Sep 21 14:39:05 2021","The main experiment item","yes","green","no","None","diamond",NA,"pinging_target_expectations 4.0.osexp","C:\Users\etp-cp-ping\Desktop\LocalPC-EXP",75,"no","mono","no",18,"no","white","no","yes",1050,NA,100,"psycho",30,0,30,"C:/Users/etp-cp-ping/Desktop/LocalPC-EXP/subject-16.csv","psycho",27,31,31,"Lentiform Loewenfeld","3.3.8","['hori', 'vert', 'hori', 'hori', 'vert', 'vert', 'hori', 'vert']","yes",109,"circles","yes",0,NA,2,"legacy",NA,1024,2,48000,-16,"experiment",16,"even","red","no",4,"circle",12861.3495999998,12980.5648000001,12980.7072000003,NA,15253.4223000002,NA,NA,6987.99040000085,1636.04060000034,NA,6988.01249999997,153804.811900001,157650.131800001,NA,NA,NA,NA,1636.11889999993,55416.8371000014,NA,NA,153804.826200001,55768.6939000014,153804.7611,"New experiment",19,"[0, 77.1128827089757, 77.99486067053272, 80.3932932319605, 79.98014761459125, 78.796586581431, 77.11975287940362, 75.1378827770879, 84.32090841365691, 94.40729684592212, 99.67630273615505, 103.76961230998765, 102.53823643714951, 97.22490641167062, 91.31975615259974, 78.1015760822023]","dist_absent",56,59,"yes","yes",1680,NA,NA,NA,NA,"NR","NR","lp",NA,NA,NA,NA,NA,NA,"practice",3,"NR","in"
"32",1411.80870000063,42398.4280999975,42398.4280999975,24,24,"y",1,"['5', '3', '7', 'space']","y","#000000","no",160734.6022,1,"neutral","psycho","psycho","psycho",0,"uniform",1,0,0,0,NA,0,0,NA,0,0,0,0,31,31,NA,NA,NA,NA,0,0,0,NA,31,0,31,73.2296414732588,"Tue Sep 21 14:39:05 2021","The main experiment item","yes","green","no","None","circle",NA,"pinging_target_expectations 4.0.osexp","C:\Users\etp-cp-ping\Desktop\LocalPC-EXP",75,"no","mono","no",18,"no","white","no","yes",1050,NA,100,"psycho",31,0,31,"C:/Users/etp-cp-ping/Desktop/LocalPC-EXP/subject-16.csv","psycho",30,32,32,"Lentiform Loewenfeld","3.3.8","['vert', 'hori', 'vert', 'vert', 'hori', 'hori', 'vert', 'hori']","no",209,"None","yes",0,NA,2,"legacy",NA,1024,2,48000,-16,"experiment",16,"even","red","no",0,"diamond",12861.3495999998,12980.5648000001,12980.7072000003,NA,15253.4223000002,NA,NA,6987.99040000085,1636.04060000034,NA,6988.01249999997,157680.2886,160926.035300001,NA,NA,NA,NA,1636.11889999993,55416.8371000014,NA,NA,157680.3026,55768.6939000014,157680.238700001,"New experiment",19,"[0, 76.57999967418648, 100.7531414290058, 124.19740608688929, 154.83648295100502, 181.93607555506742, 210.58793066785438, 241.37840452775302, 271.52124781972117, 310.2238771517738, 347.1198853349122, 378.56298980293286, 415.38215917588616, 455.63626043827225, 492.66202597559686, 538.8772345928181, 577.5704545387129, 622.9766271722643, 665.8144169785193, 712.0295413543115, 757.5075225460588, 800.3747895852993, 845.2111791764147, 894.7987097698914, 938.9938309361428, 1024.9126707367413, 1072.3415998585106, 1118.5901434161462, 1161.4348791288446, 1198.0594110486943, 1240.404873418353, 1291.8085518069183, 1331.8563173255588, 92.30283032145958, 133.86238671359592, 182.74189905416455, 237.6834891009716, 294.5049749470387, 355.21287501602296, 448.9721888707532, 517.880295048962, 586.0504338457102, 652.896395354124, 724.9801822789839, 796.3444606450151, 877.6361717705122, 1035.6541886634236, 1127.0628626380578, 1209.7355647197664, 1294.8486436560954, 74.99793879003646, 104.52333079120991, 135.90822111951815, 198.16504038912154, 246.56393214888314, 297.336572635723, 358.65852598157693, 424.5377982650803, 491.6087244611397, 563.8831660253377, 689.8037450815399, 773.501035722116, 858.9605569259237, 991.7550504880021, 1088.633385682642, 1191.8593919372067, 1304.9330443472925]","dist_absent",56,19,"yes","no",1680,NA,NA,NA,NA,"NR","R","lp",NA,NA,NA,NA,NA,NA,"practice",4,"NR","in"
"33",914.936600000161,43313.3646999977,43313.3646999977,25,25,"y",1,"['5', '3', '7', 'space']","y","#000000","no",161925.706900001,1,"neutral","psycho","psycho","psycho",0,"uniform",1,0,0,0,NA,0,0,NA,0,0,0,0,32,32,NA,NA,NA,NA,0,0,0,NA,32,0,32,73.2296414732588,"Tue Sep 21 14:39:05 2021","The main experiment item","yes","green","no","None","circle",NA,"pinging_target_expectations 4.0.osexp","C:\Users\etp-cp-ping\Desktop\LocalPC-EXP",75,"no","mono","no",18,"no","white","no","yes",1050,NA,100,"psycho",32,0,32,"C:/Users/etp-cp-ping/Desktop/LocalPC-EXP/subject-16.csv","psycho",32,33,33,"Lentiform Loewenfeld","3.3.8","['hori', 'vert', 'hori', 'vert', 'vert', 'hori', 'hori', 'vert']","yes",109,"diamond","yes",0,NA,2,"legacy",NA,1024,2,48000,-16,"experiment",16,"even","red","no",1,"diamond",12861.3495999998,12980.5648000001,12980.7072000003,NA,15253.4223000002,NA,NA,6987.99040000085,1636.04060000034,NA,6988.01249999997,160956.719900001,163854.093600001,NA,NA,NA,NA,1636.11889999993,55416.8371000014,NA,NA,160956.733700001,55768.6939000014,160956.670400001,"New experiment",19,"[0, 75.8451079529255, 93.00427472534929, 119.18129400138282, 147.2543317619431, 182.5975300583203, 218.57398766993808, 253.28877604873614, 291.5949039050573, 329.5976183462671, 371.17178769929086, 416.2682852326467, 466.04261579684993, 518.3891294116708, 569.1141786451661, 619.3067391236943, 676.3776260943696, 735.1025266701221, 792.5698768006636, 851.7935590971186, 911.302192436703, 1003.4261786674475, 1063.4625052158633, 1120.4009422834877, 1177.1784163212228, 1243.2552114689597, 1307.8460345162957]","dist_absent",56,29,"yes","no",1680,NA,NA,NA,NA,"NR","R","lp",NA,"Left",NA,NA,NA,NA,"practice",0,"NR","in"
"34",903.643199999351,44217.0078999971,44217.0078999971,26,26,"y",1,"['5', '3', '7', 'space']","y","#000000","no",164627.243700001,1,"neutral","psycho","psycho","psycho",0,"uniform",1,0,0,0,NA,0,0,NA,0,0,0,0,33,33,NA,NA,NA,NA,0,0,0,NA,33,0,33,73.2296414732588,"Tue Sep 21 14:39:05 2021","The main experiment item","yes","red","no","3","diamond",NA,"pinging_target_expectations 4.0.osexp","C:\Users\etp-cp-ping\Desktop\LocalPC-EXP",75,"no","mono","no",18,"no","white","no","yes",1050,NA,100,"psycho",33,0,33,"C:/Users/etp-cp-ping/Desktop/LocalPC-EXP/subject-16.csv","psycho",33,34,34,"Lentiform Loewenfeld","3.3.8","['vert', 'hori', 'vert', 'vert', 'vert', 'hori', 'hori', 'hori']","yes",109,"circles","yes",0,NA,2,"legacy",NA,1024,2,48000,-16,"experiment",16,"even","green","no",5,"circle",12861.3495999998,12980.5648000001,12980.7072000003,NA,15253.4223000002,NA,NA,6987.99040000085,1636.04060000034,NA,6988.01249999997,163884.739900001,166765.996600001,NA,NA,NA,NA,1636.11889999993,55416.8371000014,NA,NA,163884.753600001,55768.6939000014,163884.6894,"New experiment",19,"[0, 93.34688705705368, 115.70166875349744, 140.9235615769069, 165.46371499215365, 192.6869253635422, 220.06456651969347, 249.40927020161118, 276.23042389012886, 310.49414009793645, 340.75222951785287, 376.7831580478057, 406.2010849608117, 441.9029780746563, 475.77397464675664, 509.73137908675596, 545.8196004544312, 584.817269700915, 618.9397568088468, 656.6336066103222, 697.0519303912083, 732.6475351968916, 770.537127641, 807.6614029311223, 848.3485398616843, 889.1588839148646, 968.0466422264371, 1009.123573049206, 1051.1989060487683, 1086.8211598470155, 1122.0636487095435, 1160.2046461854366, 1192.2999875124424, 1234.353859478779, 1272.5392921242158, 1319.6744558484663]","dist_present",56,64,"yes","no",1680,NA,NA,NA,NA,"NR","NR","lp",NA,NA,NA,NA,NA,NA,"practice",1,"NR","in"
"35",780.03439999884,44997.0422999959,44997.0422999959,27,27,"y",1,"['5', '3', '7', 'space']","y","#000000","no",167462.317700001,1,"neutral","psycho","psycho","psycho",0,"uniform",1,0,0,0,NA,0,0,NA,0,0,0,0,34,34,NA,NA,NA,NA,0,0,0,NA,34,0,34,73.2296414732588,"Tue Sep 21 14:39:05 2021","The main experiment item","yes","red","no","6","diamond",NA,"pinging_target_expectations 4.0.osexp","C:\Users\etp-cp-ping\Desktop\LocalPC-EXP",75,"no","mono","no",18,"no","white","no","yes",1050,NA,100,"psycho",34,0,34,"C:/Users/etp-cp-ping/Desktop/LocalPC-EXP/subject-16.csv","psycho",34,35,35,"Lentiform Loewenfeld","3.3.8","['vert', 'hori', 'vert', 'hori', 'vert', 'hori', 'hori', 'vert']","yes",109,"diamond","yes",0,NA,2,"legacy",NA,1024,2,48000,-16,"experiment",16,"even","green","no",2,"circle",12861.3495999998,12980.5648000001,12980.7072000003,NA,15253.4223000002,NA,NA,6987.99040000085,1636.04060000034,NA,6988.01249999997,166796.527600001,169357.994100001,NA,NA,NA,NA,1636.11889999993,55416.8371000014,NA,NA,166796.542100001,55768.6939000014,166796.4775,"New experiment",19,"[0, 89.95557909845334, 112.72469184852312, 141.797010847045, 168.12149222351402, 200.89478239553955, 232.41423746905332, 268.3944597607682, 298.1549044922019, 338.3799734840682, 376.7226508443325, 414.278003158951, 454.36347446051207, 491.2677625406733, 536.6928300009392, 576.2879661223733, 620.5160494908911, 668.0505707271185, 718.8290881453461, 762.1638795059995, 810.4956062400203, 856.4947974301438, 911.2982325894769, 993.4418850760414, 1043.1721684376612, 1084.6999681212717, 1129.8820755864067, 1177.3031056044247, 1217.6626865867515, 1273.498077079122, 1325.121152452393]","dist_present",56,37,"yes","no",1680,NA,NA,NA,NA,"NR","NR","lp",NA,NA,NA,NA,NA,NA,"practice",5,"NR","in"
"36",1792.73739999917,46789.7796999951,46789.7796999951,27,27,"y",1,"['5', '3', '7', 'space']","y","#000000","no",169934.348500001,1,"neutral","psycho","psycho","psycho",0,"uniform",0,0,0,0,NA,0,0,NA,0,0,0,0,35,35,NA,NA,NA,NA,0,0,0,NA,35,0,35,73.2296414732588,"Tue Sep 21 14:39:05 2021","The main experiment item","yes","green","no","0","circle",NA,"pinging_target_expectations 4.0.osexp","C:\Users\etp-cp-ping\Desktop\LocalPC-EXP",75,"no","mono","no",18,"no","white","no","yes",1050,NA,100,"psycho",35,0,35,"C:/Users/etp-cp-ping/Desktop/LocalPC-EXP/subject-16.csv","psycho",35,36,36,"Lentiform Loewenfeld","3.3.8","['vert', 'hori', 'vert', 'hori', 'hori', 'vert', 'vert', 'hori']","yes",109,"circles","yes",0,NA,2,"legacy",NA,1024,2,48000,-16,"experiment",16,"even","red","no",2,"diamond",12861.3495999998,12980.5648000001,12980.7072000003,NA,15253.4223000002,NA,NA,6987.99040000085,1636.04060000034,NA,6988.01249999997,169390.2387,173214.0315,NA,NA,NA,NA,1636.11889999993,55416.8371000014,NA,NA,169390.2531,55768.6939000014,169390.187500001,"New experiment",19,"[0]","dist_present",56,31,"yes","yes",1680,NA,NA,NA,NA,"R","NR","lp",NA,"Left",NA,"Left",NA,NA,"practice",2,"NR","in"
"37",1198.86789999873,47988.6475999938,47988.6475999938,28,28,"y",1,"['5', '3', '7', 'space']","y","#000000","no",174575.959700001,1,"neutral","psycho","psycho","psycho",0,"uniform",1,0,0,0,NA,0,0,NA,0,0,0,0,36,36,NA,NA,NA,NA,0,0,0,NA,36,0,36,73.2296414732588,"Tue Sep 21 14:39:05 2021","The main experiment item","yes","green","no","1","circle",NA,"pinging_target_expectations 4.0.osexp","C:\Users\etp-cp-ping\Desktop\LocalPC-EXP",75,"no","mono","no",18,"no","white","no","yes",1050,NA,100,"psycho",36,0,36,"C:/Users/etp-cp-ping/Desktop/LocalPC-EXP/subject-16.csv","psycho",38,37,37,"Lentiform Loewenfeld","3.3.8","['vert', 'hori', 'hori', 'vert', 'hori', 'vert', 'hori', 'vert']","yes",109,"diamond","yes",0,NA,2,"legacy",NA,1024,2,48000,-16,"experiment",16,"even","red","no",7,"diamond",12861.3495999998,12980.5648000001,12980.7072000003,NA,15253.4223000002,NA,NA,6987.99040000085,1636.04060000034,NA,6988.01249999997,173244.743200001,176398.0374,NA,NA,NA,NA,1636.11889999993,55416.8371000014,NA,NA,173244.757,55768.6939000014,173244.692800001,"New experiment",19,"[0]","dist_present",56,82,"yes","yes",1680,NA,NA,NA,NA,"NR","NR","lp",NA,NA,NA,NA,NA,NA,"practice",2,"R","in"
"38",1396.32840000011,49384.9759999939,49384.9759999939,29,29,"y",1,"['5', '3', '7', 'space']","y","#000000","no",174575.959700001,1,"neutral","psycho","psycho","psycho",0,"uniform",1,0,0,0,NA,0,0,NA,0,0,0,0,37,37,NA,NA,NA,NA,0,0,0,NA,37,0,37,73.2296414732588,"Tue Sep 21 14:39:05 2021","The main experiment item","yes","green","no","3","diamond",NA,"pinging_target_expectations 4.0.osexp","C:\Users\etp-cp-ping\Desktop\LocalPC-EXP",75,"no","mono","no",18,"no","white","no","yes",1050,NA,100,"psycho",37,0,37,"C:/Users/etp-cp-ping/Desktop/LocalPC-EXP/subject-16.csv","psycho",38,38,38,"Lentiform Loewenfeld","3.3.8","['hori', 'vert', 'vert', 'hori', 'hori', 'vert', 'hori', 'vert']","no",209,"None","yes",0,NA,2,"legacy",NA,1024,2,48000,-16,"experiment",16,"even","red","no",2,"circle",12861.3495999998,12980.5648000001,12980.7072000003,NA,15253.4223000002,NA,NA,6987.99040000085,1636.04060000034,NA,6988.01249999997,176428.6935,179854.116,NA,NA,NA,NA,1636.11889999993,55416.8371000014,NA,NA,176428.7074,55768.6939000014,176428.644400001,"New experiment",19,"[0]","dist_present",56,34,"yes","yes",1680,NA,NA,NA,NA,"NR","NR","lp",NA,NA,NA,NA,NA,NA,"practice",7,"NR","in"
"39",1080.98729999983,50465.9632999937,50465.9632999937,30,30,"y",1,"['5', '3', '7', 'space']","y","#000000","no",180442.533500001,1,"neutral","psycho","psycho","psycho",0,"uniform",1,0,0,0,NA,0,0,NA,0,0,0,0,38,38,NA,NA,NA,NA,0,0,0,NA,38,0,38,73.2296414732588,"Tue Sep 21 14:39:05 2021","The main experiment item","yes","red","no","None","circle",NA,"pinging_target_expectations 4.0.osexp","C:\Users\etp-cp-ping\Desktop\LocalPC-EXP",75,"no","mono","no",18,"no","white","no","yes",1050,NA,100,"psycho",38,0,38,"C:/Users/etp-cp-ping/Desktop/LocalPC-EXP/subject-16.csv","psycho",39,39,39,"Lentiform Loewenfeld","3.3.8","['vert', 'hori', 'hori', 'hori', 'vert', 'hori', 'vert', 'vert']","yes",109,"diamond","yes",0,NA,2,"legacy",NA,1024,2,48000,-16,"experiment",16,"even","green","no",6,"diamond",12861.3495999998,12980.5648000001,12980.7072000003,NA,15253.4223000002,NA,NA,6987.99040000085,1636.04060000034,NA,6988.01249999997,179884.859100001,182814.008500001,NA,NA,NA,NA,1636.11889999993,55416.8371000014,NA,NA,179884.8731,55768.6939000014,179884.8101,"New experiment",19,"[0]","dist_absent",56,79,"yes","yes",1680,NA,NA,NA,NA,"NR","NR","lp",NA,"Right",NA,"Right",NA,NA,"practice",2,"NR","in"
"40",969.228899999522,51435.1921999933,51435.1921999933,31,31,"y",1,"['5', '3', '7', 'space']","y","#000000","no",183253.588900001,1,"neutral","psycho","psycho","psycho",0,"uniform",1,0,0,0,NA,0,0,NA,0,0,0,0,39,39,NA,NA,NA,NA,0,0,0,NA,39,0,39,73.2296414732588,"Tue Sep 21 14:39:05 2021","The main experiment item","yes","green","no","7","diamond",NA,"pinging_target_expectations 4.0.osexp","C:\Users\etp-cp-ping\Desktop\LocalPC-EXP",75,"no","mono","no",18,"no","white","no","yes",1050,NA,100,"psycho",39,0,39,"C:/Users/etp-cp-ping/Desktop/LocalPC-EXP/subject-16.csv","psycho",40,40,40,"Lentiform Loewenfeld","3.3.8","['vert', 'hori', 'vert', 'hori', 'vert', 'hori', 'vert', 'hori']","yes",109,"diamond","yes",0,NA,2,"legacy",NA,1024,2,48000,-16,"experiment",16,"even","red","no",1,"circle",12861.3495999998,12980.5648000001,12980.7072000003,NA,15253.4223000002,NA,NA,6987.99040000085,1636.04060000034,NA,6988.01249999997,182844.676500001,185677.993900001,NA,NA,NA,NA,1636.11889999993,55416.8371000014,NA,NA,182844.6905,55768.6939000014,182844.626800001,"New experiment",19,"[0, 76.99885677926453, 80.5149291796343, 84.83591191638062, 88.61946611998529, 92.71415886426108, 95.40617209248043, 95.91036146592391, 96.71199673515481, 97.41048550103639, 97.44461355027113, 96.24765107219324, 96.31954789977881, 96.19360530798829, 90.90490589899234, 89.80064378945508, 89.40157816131952, 83.6155731443983, 81.74102946769294, 78.24126980865198]","dist_present",56,28,"yes","yes",1680,NA,NA,NA,NA,"NR","NR","lp",NA,NA,NA,NA,NA,NA,"practice",6,"NR","in"
"41",769.602899999882,52204.7950999931,52204.7950999931,32,32,"y",1,"['5', '3', '7', 'space']","y","#000000","no",183253.588900001,1,"neutral","psycho","psycho","psycho",0,"uniform",1,0,0,0,NA,0,0,NA,0,0,0,0,40,40,NA,NA,NA,NA,0,0,0,NA,40,0,40,73.2296414732588,"Tue Sep 21 14:39:05 2021","The main experiment item","yes","red","no","None","circle",NA,"pinging_target_expectations 4.0.osexp","C:\Users\etp-cp-ping\Desktop\LocalPC-EXP",75,"no","mono","no",18,"no","white","no","yes",1050,NA,100,"psycho",40,0,40,"C:/Users/etp-cp-ping/Desktop/LocalPC-EXP/subject-16.csv","psycho",40,41,41,"Lentiform Loewenfeld","3.3.8","['hori', 'hori', 'vert', 'vert', 'vert', 'hori', 'vert', 'hori']","no",209,"None","yes",0,NA,2,"legacy",NA,1024,2,48000,-16,"experiment",16,"even","green","no",6,"diamond",12861.3495999998,12980.5648000001,12980.7072000003,NA,15253.4223000002,NA,NA,6987.99040000085,1636.04060000034,NA,6988.01249999997,185708.9423,188238.0003,NA,NA,NA,NA,1636.11889999993,55416.8371000014,NA,NA,185708.9564,55768.6939000014,185708.890800001,"New experiment",19,"[0]","dist_absent",56,79,"yes","yes",1680,NA,NA,NA,NA,"NR","NR","lp",NA,"Right",NA,"Right",NA,NA,"practice",1,"NR","in"
"42",1006.01459999965,53210.8096999928,53210.8096999928,33,33,"y",1,"['5', '3', '7', 'space']","y","#000000","no",189156.745,1,"neutral","psycho","psycho","psycho",0,"uniform",1,0,0,0,NA,0,0,NA,0,0,0,0,41,41,NA,NA,NA,NA,0,0,0,NA,41,0,41,73.2296414732588,"Tue Sep 21 14:39:05 2021","The main experiment item","yes","red","no","7","circle",NA,"pinging_target_expectations 4.0.osexp","C:\Users\etp-cp-ping\Desktop\LocalPC-EXP",75,"no","mono","no",18,"no","white","no","yes",1050,NA,100,"psycho",41,0,41,"C:/Users/etp-cp-ping/Desktop/LocalPC-EXP/subject-16.csv","psycho",41,42,42,"Lentiform Loewenfeld","3.3.8","['vert', 'vert', 'hori', 'hori', 'vert', 'vert', 'hori', 'hori']","yes",109,"circles","yes",0,NA,2,"legacy",NA,1024,2,48000,-16,"experiment",16,"even","green","no",3,"diamond",12861.3495999998,12980.5648000001,12980.7072000003,NA,15253.4223000002,NA,NA,6987.99040000085,1636.04060000034,NA,6988.01249999997,188268.6584,191214.045000001,NA,NA,NA,NA,1636.11889999993,55416.8371000014,NA,NA,188268.6725,55768.6939000014,188268.6087,"New experiment",19,"[0, 175.9427507681182, 168.6182869728561, 164.57595383311278, 152.22683077504192, 143.94948110483816, 140.4010254564385, 128.94838857660864, 123.46369354205784, 116.7341261730247, 111.1785862125745, 102.15109317771929, 97.63688487996274, 93.69678647323133, 84.9999731445314, 78.12424030881114, 86.02938206006982, 107.86606415091961, 126.90826183266188, 150.53211191885669, 175.43291797988965, 198.62033933305543, 227.23877008638257, 252.27429963890708, 281.66025633731147, 312.075207950713, 340.06012097343256, 373.8140166714711, 403.4264395360068, 435.26173900920037, 471.2670553269388, 508.6190608813221, 547.5789416280141, 582.763792565054, 621.7552466197783, 659.0417945790338, 696.136928507908, 733.9579968616922, 768.8858047760641, 809.6076843289067, 873.6042870832065, 919.6190855258386, 956.4144496769085, 999.1002718254168, 1034.8636204541428, 1072.3923664576885, 1106.7089044678896, 1147.1563971603432, 1188.2524161072713, 1229.7665853996157]","dist_present",56,48,"yes","no",1680,NA,NA,NA,NA,"NR","NR","lp",NA,NA,NA,NA,NA,NA,"practice",6,"NR","in"
"43",1123.44060000032,54334.2502999931,54334.2502999931,34,34,"y",1,"['5', '3', '7', 'space']","y","#000000","no",192014.270700001,1,"neutral","psycho","psycho","psycho",0,"uniform",1,0,0,0,NA,0,0,NA,0,0,0,0,42,42,NA,NA,NA,NA,0,0,0,NA,42,0,42,73.2296414732588,"Tue Sep 21 14:39:05 2021","The main experiment item","yes","red","no","3","diamond",NA,"pinging_target_expectations 4.0.osexp","C:\Users\etp-cp-ping\Desktop\LocalPC-EXP",75,"no","mono","no",18,"no","white","no","yes",1050,NA,100,"psycho",42,0,42,"C:/Users/etp-cp-ping/Desktop/LocalPC-EXP/subject-16.csv","psycho",42,43,43,"Lentiform Loewenfeld","3.3.8","['hori', 'vert', 'hori', 'vert', 'vert', 'vert', 'hori', 'hori']","yes",109,"diamond","yes",0,NA,2,"legacy",NA,1024,2,48000,-16,"experiment",16,"even","green","no",5,"circle",12861.3495999998,12980.5648000001,12980.7072000003,NA,15253.4223000002,NA,NA,6987.99040000085,1636.04060000034,NA,6988.01249999997,191245.3372,194333.9703,NA,NA,NA,NA,1636.11889999993,55416.8371000014,NA,NA,191245.3513,55768.6939000014,191245.2859,"New experiment",19,"[0, 84.18343205129106, 107.92153560193759, 131.71517395798176, 156.83674784193278, 186.37060210270715, 211.06711380686954, 239.49131784012866, 268.48543567561177, 300.4544842760417, 331.0842619717696, 364.69541906100517, 397.43029953475167, 434.36622638958755, 466.6207417364263, 499.9262090177822, 537.6173212803188, 574.5295008174702, 612.222915993178, 652.0622913958102, 688.7173130234936, 734.2061975843641, 769.3824861044844, 809.1944317311691, 855.5975734567511, 894.9918580449764, 961.7625220796212, 1002.0926891468685, 1042.3239325615748, 1081.1159795328035, 1120.663933345526, 1152.7160967756222, 1198.3535559094978, 1239.6471272099975]","dist_present",56,64,"yes","no",1680,NA,NA,NA,NA,"NR","NR","lp",NA,NA,NA,NA,NA,NA,"practice",3,"NR","in"
"44",1016.41820000077,55350.6684999939,55350.6684999939,35,35,"y",1,"['5', '3', '7', 'space']","y","#000000","no",196141.3455,1,"neutral","psycho","psycho","psycho",0,"uniform",1,0,0,0,NA,0,0,NA,0,0,0,0,43,43,NA,NA,NA,NA,0,0,0,NA,43,0,43,73.2296414732588,"Tue Sep 21 14:39:05 2021","The main experiment item","yes","red","no","4","diamond",NA,"pinging_target_expectations 4.0.osexp","C:\Users\etp-cp-ping\Desktop\LocalPC-EXP",75,"no","mono","no",18,"no","white","no","yes",1050,NA,100,"psycho",43,0,43,"C:/Users/etp-cp-ping/Desktop/LocalPC-EXP/subject-16.csv","psycho",44,44,44,"Lentiform Loewenfeld","3.3.8","['vert', 'hori', 'hori', 'hori', 'vert', 'hori', 'vert', 'vert']","no",209,"None","yes",0,NA,2,"legacy",NA,1024,2,48000,-16,"experiment",16,"even","green","no",5,"circle",12861.3495999998,12980.5648000001,12980.7072000003,NA,15253.4223000002,NA,NA,6987.99040000085,1636.04060000034,NA,6988.01249999997,194364.508100001,197357.957300001,NA,NA,NA,NA,1636.11889999993,55416.8371000014,NA,NA,194364.522400001,55768.6939000014,194364.4571,"New experiment",19,"[0, 82.16769005850827, 107.13361829028901, 134.1469615750034, 166.14604941535418, 195.54051899878104, 229.86049623520117, 263.5963699114024, 299.28624047114545, 335.8309194810579, 370.3863222303344, 411.72635823734134, 447.5566859665058, 494.06085251593277, 534.6886944755798, 582.1868045172482, 624.2720480296811, 673.522084009818, 719.9713947564726, 771.6963951351916, 823.08006735099, 875.0309913401148, 950.4458950546687, 1004.4190167703921, 1053.2857354571838, 1105.0177658865061, 1159.5630209883184, 1223.67220198074, 76.91873376495518, 98.78955796386383, 119.79336232948748, 144.2678252262387, 169.47052595504982, 199.17092642896216, 229.5635171329239, 258.93134086515545, 287.75014569528344, 323.1074726077706, 360.6420550356707, 391.812428747851, 430.0445766632578, 468.356688998763, 509.6088598466287, 547.5291510192138, 596.1813469181076, 631.264780110076, 676.3510220436823, 719.2005929827766, 763.787271882331, 815.9514992365943, 864.4116755497118, 922.5149853754086, 965.8137528379369, 1014.648934808589, 1065.1156019684631, 1114.2586317426878, 1165.3833582786965]","dist_present",56,65,"yes","no",1680,NA,NA,NA,NA,"R","NR","lp",NA,"Right",NA,NA,NA,NA,"practice",5,"NR","in"
"45",932.021900000109,56282.690399994,56282.690399994,36,36,"y",1,"['5', '3', '7', 'space']","y","#000000","no",196141.3455,1,"neutral","psycho","psycho","psycho",0,"uniform",1,0,0,0,NA,0,0,NA,0,0,0,0,44,44,NA,NA,NA,NA,0,0,0,NA,44,0,44,73.2296414732588,"Tue Sep 21 14:39:05 2021","The main experiment item","yes","red","no","6","circle",NA,"pinging_target_expectations 4.0.osexp","C:\Users\etp-cp-ping\Desktop\LocalPC-EXP",75,"no","mono","no",18,"no","white","no","yes",1050,NA,100,"psycho",44,0,44,"C:/Users/etp-cp-ping/Desktop/LocalPC-EXP/subject-16.csv","psycho",44,45,45,"Lentiform Loewenfeld","3.3.8","['vert', 'hori', 'hori', 'vert', 'vert', 'vert', 'hori', 'hori']","yes",109,"diamond","yes",0,NA,2,"legacy",NA,1024,2,48000,-16,"experiment",16,"even","green","no",2,"diamond",12861.3495999998,12980.5648000001,12980.7072000003,NA,15253.4223000002,NA,NA,6987.99040000085,1636.04060000034,NA,6988.01249999997,197388.8565,200141.981000001,NA,NA,NA,NA,1636.11889999993,55416.8371000014,NA,NA,197388.870800001,55768.6939000014,197388.8064,"New experiment",19,"[0]","dist_present",56,37,"yes","yes",1680,NA,NA,NA,NA,"NR","NR","lp",NA,NA,NA,NA,NA,NA,"practice",5,"R","in"
"46",1186.74769999963,57469.4380999936,57469.4380999936,37,37,"y",1,"['5', '3', '7', 'space']","y","#000000","no",201326.4533,1,"neutral","psycho","psycho","psycho",0,"uniform",1,0,0,0,NA,0,0,NA,0,0,0,0,45,45,NA,NA,NA,NA,0,0,0,NA,45,0,45,73.2296414732588,"Tue Sep 21 14:39:05 2021","The main experiment item","yes","green","no","4","circle",NA,"pinging_target_expectations 4.0.osexp","C:\Users\etp-cp-ping\Desktop\LocalPC-EXP",75,"no","mono","no",18,"no","white","no","yes",1050,NA,100,"psycho",45,0,45,"C:/Users/etp-cp-ping/Desktop/LocalPC-EXP/subject-16.csv","psycho",46,46,46,"Lentiform Loewenfeld","3.3.8","['vert', 'hori', 'vert', 'hori', 'hori', 'vert', 'hori', 'vert']","yes",109,"circles","yes",0,NA,2,"legacy",NA,1024,2,48000,-16,"experiment",16,"even","red","no",1,"diamond",12861.3495999998,12980.5648000001,12980.7072000003,NA,15253.4223000002,NA,NA,6987.99040000085,1636.04060000034,NA,6988.01249999997,200172.6005,203245.9741,NA,NA,NA,NA,1636.11889999993,55416.8371000014,NA,NA,200172.6148,55768.6939000014,200172.547800001,"New experiment",19,"[0]","dist_present",56,25,"yes","yes",1680,NA,NA,NA,NA,"NR","NR","lp",NA,"Left",NA,NA,NA,NA,"practice",2,"NR","in"
"47",1227.71480000121,58697.1528999948,58697.1528999948,38,38,"y",1,"['5', '3', '7', 'space']","y","#000000","no",203895.504400001,1,"neutral","psycho","psycho","psycho",0,"uniform",1,0,0,0,NA,0,0,NA,0,0,0,0,46,46,NA,NA,NA,NA,0,0,0,NA,46,0,46,73.2296414732588,"Tue Sep 21 14:39:05 2021","The main experiment item","yes","red","no","None","circle",NA,"pinging_target_expectations 4.0.osexp","C:\Users\etp-cp-ping\Desktop\LocalPC-EXP",75,"no","mono","no",18,"no","white","no","yes",1050,NA,100,"psycho",46,0,46,"C:/Users/etp-cp-ping/Desktop/LocalPC-EXP/subject-16.csv","psycho",47,47,47,"Lentiform Loewenfeld","3.3.8","['hori', 'hori', 'hori', 'hori', 'vert', 'vert', 'vert', 'vert']","yes",109,"diamond","yes",0,NA,2,"legacy",NA,1024,2,48000,-16,"experiment",16,"even","green","no",4,"diamond",12861.3495999998,12980.5648000001,12980.7072000003,NA,15253.4223000002,NA,NA,6987.99040000085,1636.04060000034,NA,6988.01249999997,203277.0576,206397.958000001,NA,NA,NA,NA,1636.11889999993,55416.8371000014,NA,NA,203277.071800001,55768.6939000014,203277.0074,"New experiment",19,"[0]","dist_absent",56,59,"yes","yes",1680,NA,NA,NA,NA,"NR","NR","lp",NA,NA,NA,NA,NA,NA,"practice",1,"NR","in"
"48",1070.87479999973,59768.0276999946,59768.0276999946,39,39,"y",1,"['5', '3', '7', 'space']","y","#000000","no",206951.5438,1,"neutral","psycho","psycho","psycho",0,"uniform",1,0,0,0,NA,0,0,NA,0,0,0,0,47,47,NA,NA,NA,NA,0,0,0,NA,47,0,47,73.2296414732588,"Tue Sep 21 14:39:05 2021","The main experiment item","yes","green","no","1","circle",NA,"pinging_target_expectations 4.0.osexp","C:\Users\etp-cp-ping\Desktop\LocalPC-EXP",75,"no","mono","no",18,"no","white","no","yes",1050,NA,100,"psycho",47,0,47,"C:/Users/etp-cp-ping/Desktop/LocalPC-EXP/subject-16.csv","psycho",48,48,48,"Lentiform Loewenfeld","3.3.8","['hori', 'hori', 'vert', 'hori', 'vert', 'hori', 'vert', 'vert']","yes",109,"diamond","yes",0,NA,2,"legacy",NA,1024,2,48000,-16,"experiment",16,"even","red","no",3,"diamond",12861.3495999998,12980.5648000001,12980.7072000003,NA,15253.4223000002,NA,NA,6987.99040000085,1636.04060000034,NA,6988.01249999997,206428.409400001,209565.9443,NA,NA,NA,NA,1636.11889999993,55416.8371000014,NA,NA,206428.4241,55768.6939000014,206428.3593,"New experiment",19,"[0]","dist_present",56,42,"yes","yes",1680,NA,NA,NA,NA,"NR","NR","lp",NA,NA,NA,NA,NA,NA,"practice",4,"NR","in"
"49",900.978300000133,60669.0059999947,60669.0059999947,39,39,"y",1,"['5', '3', '7', 'space']","y","#000000","no",210431.619200001,1,"neutral","psycho","psycho","psycho",0,"uniform",0,0,0,0,NA,0,0,NA,0,0,0,0,48,48,NA,NA,NA,NA,0,0,0,NA,48,0,48,73.2296414732588,"Tue Sep 21 14:39:05 2021","The main experiment item","yes","red","no","5","circle",NA,"pinging_target_expectations 4.0.osexp","C:\Users\etp-cp-ping\Desktop\LocalPC-EXP",75,"no","mono","no",18,"no","white","no","yes",1050,NA,100,"psycho",48,0,48,"C:/Users/etp-cp-ping/Desktop/LocalPC-EXP/subject-16.csv","psycho",49,49,49,"Lentiform Loewenfeld","3.3.8","['vert', 'vert', 'vert', 'hori', 'hori', 'vert', 'hori', 'hori']","yes",109,"circles","yes",0,NA,2,"legacy",NA,1024,2,48000,-16,"experiment",16,"even","green","no",1,"diamond",12861.3495999998,12980.5648000001,12980.7072000003,NA,15253.4223000002,NA,NA,6987.99040000085,1636.04060000034,NA,6988.01249999997,209598.150100001,212205.986300001,NA,NA,NA,NA,1636.11889999993,55416.8371000014,NA,NA,209598.1644,55768.6939000014,209598.100000001,"New experiment",19,"[0, 91.71894082710782, 111.16926747205895, 134.0558158480881, 162.41074471844527, 185.83512682696218, 214.47970782990387, 240.7146144866192, 263.52967304776195, 298.0430601820096, 324.6967650115799, 353.5582370519817, 382.92615996029093, 413.0853926887662, 444.2181209792639, 473.8567836706194, 505.2485416194649, 535.9586648244357, 567.3766160483505, 600.7799497628993, 631.5029524438622, 657.3044833321883, 693.5881664987039, 717.1898809260592, 748.4437186589249, 781.6889712747012, 808.2406903274403, 835.896396168182, 872.3530068300286, 931.6192683676355, 964.9547248223784, 995.6479105032332, 1027.906693606827, 1056.5317580295912, 1086.3335791125219, 1116.7103435839063, 1138.4687015222264, 1169.648214779937, 1191.9541591498596, 1225.9092111866476]","dist_present",56,26,"yes","no",1680,NA,NA,NA,NA,"NR","NR","lp",NA,NA,NA,NA,NA,NA,"practice",3,"NR","in"
"50",1373.96619999892,62042.9721999936,62042.9721999936,40,40,"y",1,"['5', '3', '7', 'space']","y","#000000","no",213360.162200001,1,"neutral","psycho","psycho","psycho",0,"uniform",1,0,0,0,NA,0,0,NA,0,0,0,0,49,49,NA,NA,NA,NA,0,0,0,NA,49,0,49,73.2296414732588,"Tue Sep 21 14:39:05 2021","The main experiment item","yes","red","no","2","circle",NA,"pinging_target_expectations 4.0.osexp","C:\Users\etp-cp-ping\Desktop\LocalPC-EXP",75,"no","mono","no",18,"no","white","no","yes",1050,NA,100,"psycho",49,0,49,"C:/Users/etp-cp-ping/Desktop/LocalPC-EXP/subject-16.csv","psycho",51,50,50,"Lentiform Loewenfeld","3.3.8","['hori', 'vert', 'vert', 'hori', 'hori', 'vert', 'hori', 'vert']","yes",109,"circles","yes",0,NA,2,"legacy",NA,1024,2,48000,-16,"experiment",16,"even","green","no",7,"diamond",12861.3495999998,12980.5648000001,12980.7072000003,NA,15253.4223000002,NA,NA,6987.99040000085,1636.04060000034,NA,6988.01249999997,212237.1122,215693.9387,NA,NA,NA,NA,1636.11889999993,55416.8371000014,NA,NA,212237.1258,55768.6939000014,212237.061200001,"New experiment",19,"[0]","dist_present",56,83,"yes","yes",1680,NA,NA,NA,NA,"NR","NR","lp",NA,NA,NA,NA,NA,NA,"practice",1,"NR","in"
"51",1387.99020000079,63430.9623999944,63430.9623999944,41,41,"y",1,"['5', '3', '7', 'space']","y","#000000","no",218856.910500001,1,"neutral","psycho","psycho","psycho",0,"uniform",1,0,0,0,NA,0,0,NA,0,0,0,0,50,50,NA,NA,NA,NA,0,0,0,NA,50,0,50,73.2296414732588,"Tue Sep 21 14:39:05 2021","The main experiment item","yes","red","no","6","diamond",NA,"pinging_target_expectations 4.0.osexp","C:\Users\etp-cp-ping\Desktop\LocalPC-EXP",75,"no","mono","no",18,"no","white","no","yes",1050,NA,100,"psycho",50,0,50,"C:/Users/etp-cp-ping/Desktop/LocalPC-EXP/subject-16.csv","psycho",53,51,51,"Lentiform Loewenfeld","3.3.8","['hori', 'hori', 'hori', 'vert', 'vert', 'vert', 'vert', 'hori']","no",209,"None","yes",0,NA,2,"legacy",NA,1024,2,48000,-16,"experiment",16,"even","green","no",0,"circle",12861.3495999998,12980.5648000001,12980.7072000003,NA,15253.4223000002,NA,NA,6987.99040000085,1636.04060000034,NA,6988.01249999997,215724.434400001,218989.9377,NA,NA,NA,NA,1636.11889999993,55416.8371000014,NA,NA,215724.448700001,55768.6939000014,215724.384300001,"New experiment",19,"[0, 102.8144554097892, 148.13245455266738, 199.7368464556113, 261.94626861553525, 347.642471763489, 410.1621559991462, 475.47889466564305, 539.9346939270114, 613.7699781745613, 677.450760250129, 741.2318154371891, 845.5617793804452, 935.9007963379134, 1005.0623845626667, 1075.3915031450738, 1135.3795842006891, 1186.9510669842457, 1247.127206140536]","dist_present",56,17,"yes","no",1680,NA,NA,NA,NA,"NR","NR","lp","Right",NA,"Right",NA,NA,NA,"practice",7,"NR","in"
"52",1235.00579999929,64665.9681999937,64665.9681999937,42,42,"y",1,"['5', '3', '7', 'space']","y","#000000","no",218856.910500001,1,"neutral","psycho","psycho","psycho",0,"uniform",1,0,0,0,NA,0,0,NA,0,0,0,0,51,51,NA,NA,NA,NA,0,0,0,NA,51,0,51,73.2296414732588,"Tue Sep 21 14:39:05 2021","The main experiment item","yes","red","no","2","diamond",NA,"pinging_target_expectations 4.0.osexp","C:\Users\etp-cp-ping\Desktop\LocalPC-EXP",75,"no","mono","no",18,"no","white","no","yes",1050,NA,100,"psycho",51,0,51,"C:/Users/etp-cp-ping/Desktop/LocalPC-EXP/subject-16.csv","psycho",53,52,52,"Lentiform Loewenfeld","3.3.8","['vert', 'hori', 'vert', 'hori', 'vert', 'hori', 'hori', 'vert']","no",209,"None","yes",0,NA,2,"legacy",NA,1024,2,48000,-16,"experiment",16,"even","green","no",7,"circle",12861.3495999998,12980.5648000001,12980.7072000003,NA,15253.4223000002,NA,NA,6987.99040000085,1636.04060000034,NA,6988.01249999997,219020.620400001,222285.9453,NA,NA,NA,NA,1636.11889999993,55416.8371000014,NA,NA,219020.6344,55768.6939000014,219020.570000001,"New experiment",19,"[0]","dist_present",56,83,"yes","yes",1680,NA,NA,NA,NA,"NR","NR","lp",NA,NA,NA,NA,NA,NA,"practice",0,"NR","in"
"53",1579.87770000001,66245.8458999937,66245.8458999937,43,43,"y",1,"['5', '3', '7', 'space']","y","#000000","no",223680.382300001,1,"neutral","psycho","psycho","psycho",0,"uniform",1,0,0,0,NA,0,0,NA,0,0,0,0,52,52,NA,NA,NA,NA,0,0,0,NA,52,0,52,73.2296414732588,"Tue Sep 21 14:39:05 2021","The main experiment item","yes","red","no","2","circle",NA,"pinging_target_expectations 4.0.osexp","C:\Users\etp-cp-ping\Desktop\LocalPC-EXP",75,"no","mono","no",18,"no","white","no","yes",1050,NA,100,"psycho",52,0,52,"C:/Users/etp-cp-ping/Desktop/LocalPC-EXP/subject-16.csv","psycho",56,53,53,"Lentiform Loewenfeld","3.3.8","['vert', 'vert', 'vert', 'hori', 'vert', 'hori', 'hori', 'hori']","no",209,"None","yes",0,NA,2,"legacy",NA,1024,2,48000,-16,"experiment",16,"even","green","no",0,"diamond",12861.3495999998,12980.5648000001,12980.7072000003,NA,15253.4223000002,NA,NA,6987.99040000085,1636.04060000034,NA,6988.01249999997,222316.374800001,225757.9358,NA,NA,NA,NA,1636.11889999993,55416.8371000014,NA,NA,222316.389000001,55768.6939000014,222316.324400001,"New experiment",19,"[0, 77.3752681519252, 82.5228091101975, 84.83591191638062, 85.32583322149367, 85.62824226868248, 79.91810772829797, 76.0094732865386, 73.40826608955308]","dist_present",56,13,"yes","yes",1680,NA,NA,NA,NA,"NR","R","lp","Left",NA,"Left",NA,NA,NA,"practice",7,"NR","in"
"54",940.176300000516,67186.0221999942,67186.0221999942,44,44,"y",1,"['5', '3', '7', 'space']","y","#000000","no",226312.918000001,1,"neutral","psycho","psycho","psycho",0,"uniform",1,0,0,0,NA,0,0,NA,0,0,0,0,53,53,NA,NA,NA,NA,0,0,0,NA,53,0,53,73.2296414732588,"Tue Sep 21 14:39:05 2021","The main experiment item","yes","green","no","None","circle",NA,"pinging_target_expectations 4.0.osexp","C:\Users\etp-cp-ping\Desktop\LocalPC-EXP",75,"no","mono","no",18,"no","white","no","yes",1050,NA,100,"psycho",53,0,53,"C:/Users/etp-cp-ping/Desktop/LocalPC-EXP/subject-16.csv","psycho",57,54,54,"Lentiform Loewenfeld","3.3.8","['hori', 'vert', 'hori', 'hori', 'vert', 'vert', 'vert', 'hori']","yes",109,"circles","yes",0,NA,2,"legacy",NA,1024,2,48000,-16,"experiment",16,"even","red","no",3,"diamond",12861.3495999998,12980.5648000001,12980.7072000003,NA,15253.4223000002,NA,NA,6987.99040000085,1636.04060000034,NA,6988.01249999997,225788.5506,228541.927100001,NA,NA,NA,NA,1636.11889999993,55416.8371000014,NA,NA,225788.564600001,55768.6939000014,225788.4995,"New experiment",19,"[0]","dist_absent",56,49,"yes","no",1680,NA,NA,NA,NA,"NR","NR","lp",NA,"Left",NA,NA,NA,NA,"practice",0,"NR","in"
"55",1044.60069999914,68230.6228999934,68230.6228999934,44,44,"y",1,"['5', '3', '7', 'space']","y","#000000","no",226312.918000001,1,"neutral","psycho","psycho","psycho",0,"uniform",0,0,0,0,NA,0,0,NA,0,0,0,0,54,54,NA,NA,NA,NA,0,0,0,NA,54,0,54,73.2296414732588,"Tue Sep 21 14:39:05 2021","The main experiment item","yes","red","no","5","circle",NA,"pinging_target_expectations 4.0.osexp","C:\Users\etp-cp-ping\Desktop\LocalPC-EXP",75,"no","mono","no",18,"no","white","no","yes",1050,NA,100,"psycho",54,0,54,"C:/Users/etp-cp-ping/Desktop/LocalPC-EXP/subject-16.csv","psycho",57,55,55,"Lentiform Loewenfeld","3.3.8","['hori', 'hori', 'vert', 'vert', 'hori', 'vert', 'hori', 'vert']","yes",109,"diamond","yes",0,NA,2,"legacy",NA,1024,2,48000,-16,"experiment",16,"even","green","no",2,"diamond",12861.3495999998,12980.5648000001,12980.7072000003,NA,15253.4223000002,NA,NA,6987.99040000085,1636.04060000034,NA,6988.01249999997,228572.615900001,231741.909300001,NA,NA,NA,NA,1636.11889999993,55416.8371000014,NA,NA,228572.630500001,55768.6939000014,228572.564900001,"New experiment",19,"[0]","dist_present",56,36,"yes","yes",1680,NA,NA,NA,NA,"NR","NR","lp",NA,NA,NA,NA,NA,NA,"practice",3,"NR","in"
"56",1881.52890000126,70112.1517999946,70112.1517999946,44,44,"y",1,"['5', '3', '7', 'space']","y","#000000","no",232837.0455,1,"neutral","psycho","psycho","psycho",0,"uniform",0,0,0,0,NA,0,0,NA,0,0,0,0,55,55,NA,NA,NA,NA,0,0,0,NA,55,0,55,73.2296414732588,"Tue Sep 21 14:39:05 2021","The main experiment item","yes","green","no","0","diamond",NA,"pinging_target_expectations 4.0.osexp","C:\Users\etp-cp-ping\Desktop\LocalPC-EXP",75,"no","mono","no",18,"no","white","no","yes",1050,NA,100,"psycho",55,0,55,"C:/Users/etp-cp-ping/Desktop/LocalPC-EXP/subject-16.csv","psycho",59,56,56,"Lentiform Loewenfeld","3.3.8","['hori', 'hori', 'hori', 'vert', 'vert', 'vert', 'hori', 'vert']","no",209,"None","yes",0,NA,2,"legacy",NA,1024,2,48000,-16,"experiment",16,"even","red","no",6,"circle",12861.3495999998,12980.5648000001,12980.7072000003,NA,15253.4223000002,NA,NA,6987.99040000085,1636.04060000034,NA,6988.01249999997,231772.637400001,235613.9217,NA,NA,NA,NA,1636.11889999993,55416.8371000014,NA,NA,231772.6513,55768.6939000014,231772.586900001,"New experiment",19,"[0, 80.50124199898814, 96.32640456189313, 113.10722279172535, 133.59401995586984, 152.2598518498956, 172.4536127408296, 195.88006534611938, 219.55502092166932, 247.17996342512868, 274.63723359756995, 301.47909713328636, 332.23755917647213, 364.80437399935687, 392.80116468206546, 427.721426402181, 460.4037164692228, 501.45653058408743, 537.9191389047243, 572.9287560822038, 614.9156593213528, 654.7250991291597, 702.5758426551669, 744.3426739806032, 794.3758556250309, 841.7273998940645, 896.9791748106239, 972.8064275516687, 1026.1609679402275, 1082.555379199237, 1136.696183886834, 1196.6214628452055, 1245.6887973658652, 78.10965924383932, 101.31852974760139, 126.7391035403505, 151.13815322367623, 178.8648767390052, 202.92712834647295, 235.18929997193678, 263.8231595161256, 291.8141084017448, 328.31873089669796, 359.01712951767433, 391.958487960371, 431.3217727072544, 466.47962659825794, 505.2295680124469, 538.6208316053687, 584.3871848537489, 623.9205118932487, 665.7843057090773, 707.2258416404095, 753.8539170145932, 793.0209903204757, 839.2271244869356, 886.0835930553263, 961.8747134959372, 1006.3469821689279, 1056.878024964717, 1098.8240789207418, 1139.4611466314323, 1184.8151845130274, 1230.085249737227, 1285.5070875072026]","dist_present",56,71,"yes","no",1680,NA,NA,NA,NA,"NR","NR","lp",NA,"Right",NA,"Right",NA,NA,"practice",2,"NR","in"
"57",1078.45340000134,1078.45340000134,71190.6051999959,1,45,"y",1,"['5', '3', '7', 'space']","y","#000000","no",491683.500000001,2,"bias","psycho","psycho","psycho",0,"uniform",1,0,1,1,NA,1,0,NA,0,0,1,0,56,56,NA,NA,NA,NA,0,1,1,NA,56,1,56,73.2296414732588,"Tue Sep 21 14:39:05 2021","The main experiment item","yes","red","no","5","circle",NA,"pinging_target_expectations 4.0.osexp","C:\Users\etp-cp-ping\Desktop\LocalPC-EXP",75,"no","mono","no",18,"no","white","no","yes",1050,NA,4,"psycho",0,1,0,"C:/Users/etp-cp-ping/Desktop/LocalPC-EXP/subject-16.csv","psycho",1,57,1,"Lentiform Loewenfeld","3.3.8","['vert', 'vert', 'hori', 'vert', 'vert', 'hori', 'hori', 'hori']","no",204,"None","no",0,NA,2,"legacy",NA,1024,2,48000,-16,"experiment",16,"even","green","no",3,"diamond",12861.3495999998,403518.4054,403518.596,NA,467745.9681,NA,NA,6987.99040000085,1636.04060000034,236150.259100001,6988.01249999997,491230.229700001,493981.5748,NA,NA,NA,NA,1636.11889999993,490850.500100001,235643.991000001,NA,491230.246000001,491225.8057,491230.152400001,"New experiment",19,"[0, 90.26368499895261, 108.75206528660574, 129.1838032777237, 155.44222831255857, 182.02506592902293, 209.1422840100434, 237.18095935481276, 265.2513593880844, 296.83462695871475, 328.3036541356925, 355.03607056377797, 387.6190361993614, 420.9358244619125, 455.9851368620075, 491.8755122222757, 526.5569361584768, 561.5107656461491, 606.5050193756291, 643.9112383026877, 686.5712038948174, 729.7954847443393, 774.1625837929795, 824.6253702439687, 869.0793257709121, 919.2333991666954, 968.129091732749, 1018.5604861040604, 1116.2928120256702, 1162.3361181906002, 1210.990079882664, 1253.8149862990813, 1293.0107782897398, 1333.249908697904, 1364.6895685523598, 1394.6789987714947, 1441.9636901330457]","dist_present",56,46,"yes","no",1680,2.75387417437258,-2.16336773447831,"more toward","False","NR","NR","lp",NA,NA,NA,NA,1,-1,"first",999,"NR","in"
"58",940.290399999882,2018.74380000122,72130.8955999958,2,46,"y",1,"['5', '3', '7', 'space']","y","#000000","no",491683.500000001,2,"bias","psycho","psycho","psycho",0,"uniform",1,0,1,1,NA,1,0,NA,0,0,1,0,57,57,NA,NA,NA,NA,0,1,1,NA,57,1,57,73.2296414732588,"Tue Sep 21 14:39:05 2021","The main experiment item","yes","red","no","None","circle",NA,"pinging_target_expectations 4.0.osexp","C:\Users\etp-cp-ping\Desktop\LocalPC-EXP",75,"no","mono","no",18,"no","white","no","yes",1050,NA,4,"psycho",1,1,1,"C:/Users/etp-cp-ping/Desktop/LocalPC-EXP/subject-16.csv","psycho",1,58,2,"Lentiform Loewenfeld","3.3.8","['hori', 'hori', 'vert', 'vert', 'vert', 'hori', 'vert', 'hori']","yes",104,"circles","no",0,NA,2,"legacy",NA,1024,2,48000,-16,"experiment",16,"even","green","no",1,"diamond",12861.3495999998,403518.4054,403518.596,NA,467745.9681,NA,NA,6987.99040000085,1636.04060000034,236150.259100001,6988.01249999997,494015.2684,496909.5715,NA,NA,NA,NA,1636.11889999993,490850.500100001,235643.991000001,NA,494015.2827,491225.8057,494015.2196,"New experiment",19,"[0, 87.4547196874232, 114.90280932519038, 128.40765685071827, 145.1034214449806, 163.80304026780672, 182.21329397701317, 200.15284161081502, 214.96292847865172, 240.44402989817206, 253.98067389067643, 265.01483495106714, 276.61861760281573, 288.62815105266276, 295.63399742683674, 305.0361168101146, 313.8963317987325, 314.89925048583916, 315.1990486556672, 315.3134219278538, 315.3322121563839, 314.00451418991065, 307.7201724953177, 303.39519149802265, 297.1183020491979, 289.00762947967576, 279.40047180092364, 268.01910394247113, 258.3523249765736, 245.4027173128927, 235.33264994031413, 219.87618140427597, 210.32840868972949, 199.60303037862107, 181.1987288609429, 163.13754239677192, 152.19490854817855, 143.82264421252256, 126.97687611479262, 116.31080917548155, 102.22942421720859, 85.96047888806116, 74.20971691740398]","dist_absent",56,29,"yes","yes",1680,0.63268667437263,-6.37293023447835,"more toward","False","NR","NR","lp",NA,"Left",NA,NA,3,NA,"first",3,"NR","in"
"59",941.283500000311,2960.02730000153,73072.1790999961,2,46,"y",1,"['5', '3', '7', 'space']","y","#000000","no",497731.6042,2,"bias","psycho","psycho","psycho",0,"uniform",0,0,1,1,NA,1,0,NA,0,0,1,0,58,58,NA,NA,NA,NA,0,1,1,NA,58,1,58,73.2296414732588,"Tue Sep 21 14:39:05 2021","The main experiment item","yes","green","no","3","circle",NA,"pinging_target_expectations 4.0.osexp","C:\Users\etp-cp-ping\Desktop\LocalPC-EXP",75,"no","mono","no",18,"no","white","no","yes",1050,NA,4,"psycho",2,1,2,"C:/Users/etp-cp-ping/Desktop/LocalPC-EXP/subject-16.csv","psycho",2,59,3,"Lentiform Loewenfeld","3.3.8","['hori', 'vert', 'vert', 'hori', 'vert', 'vert', 'hori', 'hori']","yes",104,"circles","no",0,NA,2,"legacy",NA,1024,2,48000,-16,"experiment",16,"even","red","no",0,"diamond",12861.3495999998,403518.4054,403518.596,NA,467745.9681,NA,NA,6987.99040000085,1636.04060000034,236150.259100001,6988.01249999997,496940.560200001,499901.5726,NA,NA,NA,NA,1636.11889999993,490850.500100001,235643.991000001,NA,496940.574100001,491225.8057,496940.508600001,"New experiment",19,"[0, 96.985759968765, 125.3862129772883, 153.54427873492162, 181.5073099813363, 212.46025213049325, 241.55451844430414, 278.2194136405035, 311.10896237448344, 346.8652500318945, 384.9713228875646, 423.5426079216798, 464.8389269182567, 508.2054145509544, 552.2707550865143, 592.4498894330729, 640.5848837229903, 686.5129166067975, 736.6704493743779, 780.5255421404186, 828.4758843692708, 871.5648670582327, 918.7021347942917, 967.3327165468744, 1019.028894898322, 1123.9367342613518, 1174.7197063039791, 1221.016653323317, 1271.1172186918034, 1317.0918581602552, 1361.5252687568386, 1401.2129581515435, 1435.9409172378419]","dist_present",56,14,"yes","no",1680,14.3026241743726,-3.59030523447837,"more toward","False","NR","NR","lp","Left",NA,NA,NA,4,1,"first",1,"NR","in"
"60",1151.85349999962,4111.88080000115,74224.0325999958,3,47,"y",1,"['5', '3', '7', 'space']","y","#000000","no",500646.6745,2,"bias","psycho","psycho","psycho",0,"uniform",1,0,1,1,NA,1,0,NA,0,0,1,0,59,59,NA,NA,NA,NA,0,1,1,NA,59,1,59,73.2296414732588,"Tue Sep 21 14:39:05 2021","The main experiment item","yes","red","no","None","circle",NA,"pinging_target_expectations 4.0.osexp","C:\Users\etp-cp-ping\Desktop\LocalPC-EXP",75,"no","mono","no",18,"no","white","no","yes",1050,NA,4,"psycho",3,1,3,"C:/Users/etp-cp-ping/Desktop/LocalPC-EXP/subject-16.csv","psycho",3,60,4,"Lentiform Loewenfeld","3.3.8","['hori', 'hori', 'vert', 'vert', 'vert', 'hori', 'vert', 'hori']","yes",104,"diamond","no",0,NA,2,"legacy",NA,1024,2,48000,-16,"experiment",16,"even","green","yes",4,"diamond",12861.3495999998,403518.4054,403518.596,NA,467745.9681,NA,NA,6987.99040000085,1636.04060000034,236150.259100001,6988.01249999997,499932.8331,503197.5853,NA,NA,NA,NA,1636.11889999993,490850.500100001,235643.991000001,NA,499932.8477,491225.8057,499932.782100001,"New experiment",19,"[0, 82.44621488952463, 105.77506841244228, 131.22381840800958, 156.99390500429067, 185.84278155356628, 216.46017826476688, 246.7924080841812, 279.1308094324499, 312.71152840917136, 345.8603665843034, 377.8690115924767, 411.71941898664835, 448.12623192985774, 484.29855391203597, 517.8295948327675, 554.0928421282435, 591.2364163344474, 627.1865369402805, 664.1304055574778, 702.606500306154, 739.0173453931869, 781.4293386254761, 821.7670356502201, 862.1014321790885, 900.7231628251853, 941.2166843373532, 978.2428971079671, 1019.0106317871829, 1051.8456125156208, 1152.4516478892547, 1181.7947841640876, 1221.1521552181155, 1254.4145226231526, 1284.992373569523, 1321.6863632746658, 1347.6868040195832, 1378.0138853784815, 1395.9114430230516, 1422.285781911374]","dist_absent",56,59,"yes","no",1680,9.71899917437256,0.923007265521661,"more toward","False","NR","NR","lp",NA,NA,NA,NA,0,NA,"first",0,"NR","ex"
"61",1744.98480000149,5856.86560000264,75969.0173999972,4,48,"y",1,"['5', '3', '7', 'space']","y","#000000","no",500646.6745,2,"bias","psycho","psycho","psycho",0,"uniform",1,0,1,1,NA,1,0,NA,0,0,1,0,60,60,NA,NA,NA,NA,0,1,1,NA,60,1,60,73.2296414732588,"Tue Sep 21 14:39:05 2021","The main experiment item","yes","red","no","None","diamond",NA,"pinging_target_expectations 4.0.osexp","C:\Users\etp-cp-ping\Desktop\LocalPC-EXP",75,"no","mono","no",18,"no","white","no","yes",1050,NA,4,"psycho",4,1,4,"C:/Users/etp-cp-ping/Desktop/LocalPC-EXP/subject-16.csv","psycho",3,61,5,"Lentiform Loewenfeld","3.3.8","['hori', 'vert', 'hori', 'hori', 'vert', 'hori', 'vert', 'vert']","no",204,"None","no",0,NA,2,"legacy",NA,1024,2,48000,-16,"experiment",16,"even","green","yes",4,"circle",12861.3495999998,403518.4054,403518.596,NA,467745.9681,NA,NA,6987.99040000085,1636.04060000034,236150.259100001,6988.01249999997,503228.5636,506893.554300001,NA,NA,NA,NA,1636.11889999993,490850.500100001,235643.991000001,NA,503228.5778,491225.8057,503228.512600001,"New experiment",19,"[0, 75.01316352580812, 74.97763631421286, 74.31352501395692, 77.14612517105083, 76.71956602799305, 76.66897247473928, 75.71981540083208, 73.47013560077256]","dist_absent",56,59,"yes","yes",1680,2.65656167437246,-4.49293023447834,"more toward","False","R","R","hp",NA,NA,NA,NA,0,NA,"first",4,"NR","ex"
"62",1879.88899999985,7736.75460000249,77848.9063999971,5,49,"y",1,"['5', '3', '7', 'space']","y","#000000","no",507724.804400001,2,"bias","psycho","psycho","psycho",0,"uniform",1,0,1,1,NA,1,0,NA,0,0,1,0,61,61,NA,NA,NA,NA,0,1,1,NA,61,1,61,73.2296414732588,"Tue Sep 21 14:39:05 2021","The main experiment item","yes","green","no","0","diamond",NA,"pinging_target_expectations 4.0.osexp","C:\Users\etp-cp-ping\Desktop\LocalPC-EXP",75,"no","mono","no",18,"no","white","no","yes",1050,NA,4,"psycho",5,1,5,"C:/Users/etp-cp-ping/Desktop/LocalPC-EXP/subject-16.csv","psycho",5,62,6,"Lentiform Loewenfeld","3.3.8","['hori', 'vert', 'hori', 'hori', 'vert', 'vert', 'vert', 'hori']","yes",104,"diamond","no",0,NA,2,"legacy",NA,1024,2,48000,-16,"experiment",16,"even","red","yes",4,"circle",12861.3495999998,403518.4054,403518.596,NA,467745.9681,NA,NA,6987.99040000085,1636.04060000034,236150.259100001,6988.01249999997,506924.533200001,510749.582500001,NA,NA,NA,NA,1636.11889999993,490850.500100001,235643.991000001,NA,506924.547300001,491225.8057,506924.483100001,"New experiment",19,"[0]","dist_present",56,51,"yes","yes",1680,NA,NA,"no hp","True","R","NR","hp",NA,NA,NA,NA,0,4,"first",4,"R","ex"
