"","RT","RT_bl","RT_tot","acc_bl","acc_tot","answer_debrief_1","answer_debrief_2","answer_debrief_3","answer_debrief_4","background","bidi","blink_onset","block_cnt","block_type","canvas_backend","clock_backend","color_backend","compensation","coordinates","correct","count_block_loop","count_block_seq","count_block_settings","count_check_session","count_drift_correct","count_end_loop","count_end_seq","count_exp_settings","count_experiment","count_feedback","count_instructions","count_log_variables","count_logger","count_new_inline_script","count_new_pygaze_drift_correct","count_new_pygaze_start_recording","count_new_pygaze_stop_recording","count_pygaze","count_start_recording","count_stop_recording","count_test_location","count_trial","count_trial_loop","count_trial_seq","d_eye","datetime","description","disable_garbage_collection","dist_color","dist_high","dist_loc","dist_shape","empty_column","experiment_file","experiment_path","eye_threshold_length","font_bold","font_family","font_italic","font_size","font_underline","foreground","form_clicks","fullscreen","height","high_loc","high_prob_loc","keyboard_backend","live_row","live_row_block_loop","live_row_trial_loop","logfile","mouse_backend","nr_blinks","nr_trials","nr_trials_bl","opensesame_codename","opensesame_version","orient_list_trial","ping","ping_trigger","ping_type","practice","repeat_cycle","response","round_decimals","sampler_backend","session_nr","sound_buf_size","sound_channels","sound_freq","sound_sample_size","start","subject_nr","subject_parity","target_color","target_high","target_loc","target_shape","time_block_loop","time_block_seq","time_block_settings","time_check_session","time_drift_correct","time_end_loop","time_end_seq","time_exp_settings","time_experiment","time_feedback","time_instructions","time_log_variables","time_logger","time_new_inline_script","time_new_pygaze_drift_correct","time_new_pygaze_start_recording","time_new_pygaze_stop_recording","time_pygaze","time_start_recording","time_stop_recording","time_test_location","time_trial","time_trial_loop","time_trial_seq","title","total_blocks","tracker_dev","trial_type","trials_in_block","trigger","uniform_coordinates","update_blinks","width","x","y","toward","containsNaN","rept","repd","prevtar","pd","nt","pd_c","nt_c","tar_dist","dist_dist","prevHP","eegTar","repteeg","tarcounter"
"1",2001.00019999995,2001.00019999995,2001.00019999995,0,0,"n",6,"['6']","y","#000000","no",3872.28449999998,1,"neutral","psycho","psycho","psycho",0,"uniform",0,0,0,0,NA,0,0,NA,0,0,0,0,0,0,NA,NA,NA,NA,0,0,0,NA,0,0,0,73.2296414732588,"Wed Aug  4 11:46:48 2021","The main experiment item","yes","red","no","None","diamond",NA,"pinging_target_expectations 3.2.osexp","C:\Users\etp-cp-ping\Desktop\LocalPC-EXP",75,"no","mono","no",18,"no","white","no","yes",1050,NA,100,"psycho",0,0,0,"C:/Users/etp-cp-ping/Desktop/LocalPC-EXP/subject-4.csv","psycho",0,1,1,"Lentiform Loewenfeld","3.3.8","['vert', 'hori', 'hori', 'vert', 'vert', 'vert', 'hori', 'hori']","no",209,"None","yes",0,NA,2,"legacy",NA,1024,2,48000,-16,"experiment",4,"even","green","no",5,"circle",410480.9268,410575.7772,410575.8172,NA,417632.94,NA,NA,109348.4187,3877.67660000009,NA,109348.4406,419267.0202,423121.8522,NA,NA,NA,NA,3877.75469999997,418778.6724,NA,NA,419267.0355,419262.7779,419266.9748,"New experiment",19,"[0]","dist_absent",56,69,"yes","yes",1680,NA,NA,NA,NA,"NR","NR","lp",NA,"Right",NA,NA,NA,NA,"practice",999,"NR","in"
"2",1220.83449999994,3221.83469999989,3221.83469999989,1,1,"n",6,"['6']","y","#000000","no",3872.28449999998,1,"neutral","psycho","psycho","psycho",0,"uniform",1,0,0,0,NA,0,0,NA,0,0,0,0,1,1,NA,NA,NA,NA,0,0,0,NA,1,0,1,73.2296414732588,"Wed Aug  4 11:46:48 2021","The main experiment item","yes","red","no","2","circle",NA,"pinging_target_expectations 3.2.osexp","C:\Users\etp-cp-ping\Desktop\LocalPC-EXP",75,"no","mono","no",18,"no","white","no","yes",1050,NA,100,"psycho",1,0,1,"C:/Users/etp-cp-ping/Desktop/LocalPC-EXP/subject-4.csv","psycho",0,2,2,"Lentiform Loewenfeld","3.3.8","['vert', 'hori', 'hori', 'vert', 'hori', 'vert', 'vert', 'hori']","no",209,"None","yes",0,NA,2,"legacy",NA,1024,2,48000,-16,"experiment",4,"even","green","no",7,"diamond",410480.9268,410575.7772,410575.8172,NA,417632.94,NA,NA,109348.4187,3877.67660000009,NA,109348.4406,423162.1414,426306.2108,NA,NA,NA,NA,3877.75469999997,418778.6724,NA,NA,423162.1562,419262.7779,423162.0935,"New experiment",19,"[0]","dist_present",56,83,"yes","yes",1680,NA,NA,NA,NA,"NR","NR","lp",NA,NA,NA,NA,NA,NA,"practice",5,"NR","in"
"3",870.994800000044,4092.82949999993,4092.82949999993,1,1,"n",6,"['6']","y","#000000","no",3872.28449999998,1,"neutral","psycho","psycho","psycho",0,"uniform",0,0,0,0,NA,0,0,NA,0,0,0,0,2,2,NA,NA,NA,NA,0,0,0,NA,2,0,2,73.2296414732588,"Wed Aug  4 11:46:48 2021","The main experiment item","yes","green","no","0","diamond",NA,"pinging_target_expectations 3.2.osexp","C:\Users\etp-cp-ping\Desktop\LocalPC-EXP",75,"no","mono","no",18,"no","white","no","yes",1050,NA,100,"psycho",2,0,2,"C:/Users/etp-cp-ping/Desktop/LocalPC-EXP/subject-4.csv","psycho",0,3,3,"Lentiform Loewenfeld","3.3.8","['vert', 'hori', 'vert', 'vert', 'hori', 'hori', 'vert', 'hori']","no",209,"None","yes",0,NA,2,"legacy",NA,1024,2,48000,-16,"experiment",4,"even","red","no",4,"circle",410480.9268,410575.7772,410575.8172,NA,417632.94,NA,NA,109348.4187,3877.67660000009,NA,109348.4406,426337.0319,429058.2816,NA,NA,NA,NA,3877.75469999997,418778.6724,NA,NA,426337.0466,419262.7779,426336.9826,"New experiment",19,"[0]","dist_present",56,51,"yes","yes",1680,NA,NA,NA,NA,"NR","NR","lp",NA,NA,NA,NA,NA,NA,"practice",7,"NR","in"
"4",1687.05630000023,5779.88580000016,5779.88580000016,2,2,"n",6,"['6']","y","#000000","no",3872.28449999998,1,"neutral","psycho","psycho","psycho",0,"uniform",1,0,0,0,NA,0,0,NA,0,0,0,0,3,3,NA,NA,NA,NA,0,0,0,NA,3,0,3,73.2296414732588,"Wed Aug  4 11:46:48 2021","The main experiment item","yes","green","no","None","diamond",NA,"pinging_target_expectations 3.2.osexp","C:\Users\etp-cp-ping\Desktop\LocalPC-EXP",75,"no","mono","no",18,"no","white","no","yes",1050,NA,100,"psycho",3,0,3,"C:/Users/etp-cp-ping/Desktop/LocalPC-EXP/subject-4.csv","psycho",0,4,4,"Lentiform Loewenfeld","3.3.8","['vert', 'hori', 'hori', 'vert', 'hori', 'vert', 'vert', 'hori']","no",209,"None","yes",0,NA,2,"legacy",NA,1024,2,48000,-16,"experiment",4,"even","red","no",7,"circle",410480.9268,410575.7772,410575.8172,NA,417632.94,NA,NA,109348.4187,3877.67660000009,NA,109348.4406,429088.3762,432705.9891,NA,NA,NA,NA,3877.75469999997,418778.6724,NA,NA,429088.391,419262.7779,429088.3217,"New experiment",19,"[0]","dist_absent",56,89,"yes","yes",1680,NA,NA,NA,NA,"NR","NR","lp",NA,"Right",NA,NA,NA,NA,"practice",4,"NR","in"
"5",1705.79229999974,7485.6780999999,7485.6780999999,3,3,"n",6,"['6']","y","#000000","no",3872.28449999998,1,"neutral","psycho","psycho","psycho",0,"uniform",1,0,0,0,NA,0,0,NA,0,0,0,0,4,4,NA,NA,NA,NA,0,0,0,NA,4,0,4,73.2296414732588,"Wed Aug  4 11:46:48 2021","The main experiment item","yes","green","no","7","diamond",NA,"pinging_target_expectations 3.2.osexp","C:\Users\etp-cp-ping\Desktop\LocalPC-EXP",75,"no","mono","no",18,"no","white","no","yes",1050,NA,100,"psycho",4,0,4,"C:/Users/etp-cp-ping/Desktop/LocalPC-EXP/subject-4.csv","psycho",0,5,5,"Lentiform Loewenfeld","3.3.8","['hori', 'vert', 'hori', 'vert', 'hori', 'vert', 'hori', 'vert']","yes",109,"diamond","yes",0,NA,2,"legacy",NA,1024,2,48000,-16,"experiment",4,"even","red","no",3,"circle",410480.9268,410575.7772,410575.8172,NA,417632.94,NA,NA,109348.4187,3877.67660000009,NA,109348.4406,432736.2869,436178.0024,NA,NA,NA,NA,3877.75469999997,418778.6724,NA,NA,432736.3015,419262.7779,432736.2362,"New experiment",19,"[0]","dist_present",56,48,"yes","yes",1680,NA,NA,NA,NA,"NR","NR","lp",NA,NA,NA,NA,NA,NA,"practice",7,"NR","in"
"6",2000.7032999997,9486.38139999961,9486.38139999961,3,3,"n",6,"['6']","y","#000000","no",3872.28449999998,1,"neutral","psycho","psycho","psycho",0,"uniform",0,0,0,0,NA,0,0,NA,0,0,0,0,5,5,NA,NA,NA,NA,0,0,0,NA,5,0,5,73.2296414732588,"Wed Aug  4 11:46:48 2021","The main experiment item","yes","green","no","5","diamond",NA,"pinging_target_expectations 3.2.osexp","C:\Users\etp-cp-ping\Desktop\LocalPC-EXP",75,"no","mono","no",18,"no","white","no","yes",1050,NA,100,"psycho",5,0,5,"C:/Users/etp-cp-ping/Desktop/LocalPC-EXP/subject-4.csv","psycho",0,6,6,"Lentiform Loewenfeld","3.3.8","['hori', 'vert', 'vert', 'hori', 'hori', 'hori', 'vert', 'vert']","yes",109,"diamond","yes",0,NA,2,"legacy",NA,1024,2,48000,-16,"experiment",4,"even","red","no",0,"circle",410480.9268,410575.7772,410575.8172,NA,417632.94,NA,NA,109348.4187,3877.67660000009,NA,109348.4406,436208.1788,440160.3056,NA,NA,NA,NA,3877.75469999997,418778.6724,NA,NA,436208.1934,419262.7779,436208.1278,"New experiment",19,"[0]","dist_present",56,16,"yes","yes",1680,NA,NA,NA,NA,"NR","NR","lp","Right",NA,NA,NA,NA,NA,"practice",3,"NR","in"
"7",2000.92110000015,11487.3024999998,11487.3024999998,3,3,"n",6,"['6']","y","#000000","no",3872.28449999998,1,"neutral","psycho","psycho","psycho",0,"uniform",0,0,0,0,NA,0,0,NA,0,0,0,0,6,6,NA,NA,NA,NA,0,0,0,NA,6,0,6,73.2296414732588,"Wed Aug  4 11:46:48 2021","The main experiment item","yes","green","no","None","diamond",NA,"pinging_target_expectations 3.2.osexp","C:\Users\etp-cp-ping\Desktop\LocalPC-EXP",75,"no","mono","no",18,"no","white","no","yes",1050,NA,100,"psycho",6,0,6,"C:/Users/etp-cp-ping/Desktop/LocalPC-EXP/subject-4.csv","psycho",0,7,7,"Lentiform Loewenfeld","3.3.8","['hori', 'vert', 'hori', 'vert', 'hori', 'vert', 'vert', 'hori']","no",209,"None","yes",0,NA,2,"legacy",NA,1024,2,48000,-16,"experiment",4,"even","red","no",3,"circle",410480.9268,410575.7772,410575.8172,NA,417632.94,NA,NA,109348.4187,3877.67660000009,NA,109348.4406,440193.2173,444244.1449,NA,NA,NA,NA,3877.75469999997,418778.6724,NA,NA,440193.2318,419262.7779,440193.1656,"New experiment",19,"[0]","dist_absent",56,49,"yes","yes",1680,NA,NA,NA,NA,"NR","NR","lp",NA,"Left",NA,NA,NA,NA,"practice",0,"NR","in"
"8",1477.82620000001,12965.1286999998,12965.1286999998,3,3,"n",6,"['6']","y","#000000","no",3872.28449999998,1,"neutral","psycho","psycho","psycho",0,"uniform",0,0,0,0,NA,0,0,NA,0,0,0,0,7,7,NA,NA,NA,NA,0,0,0,NA,7,0,7,73.2296414732588,"Wed Aug  4 11:46:48 2021","The main experiment item","yes","red","no","None","diamond",NA,"pinging_target_expectations 3.2.osexp","C:\Users\etp-cp-ping\Desktop\LocalPC-EXP",75,"no","mono","no",18,"no","white","no","yes",1050,NA,100,"psycho",7,0,7,"C:/Users/etp-cp-ping/Desktop/LocalPC-EXP/subject-4.csv","psycho",0,8,8,"Lentiform Loewenfeld","3.3.8","['vert', 'vert', 'hori', 'vert', 'vert', 'hori', 'hori', 'hori']","no",209,"None","yes",0,NA,2,"legacy",NA,1024,2,48000,-16,"experiment",4,"even","green","no",0,"circle",410480.9268,410575.7772,410575.8172,NA,417632.94,NA,NA,109348.4187,3877.67660000009,NA,109348.4406,444274.9512,447666.0105,NA,NA,NA,NA,3877.75469999997,418778.6724,NA,NA,444274.9653,419262.7779,444274.9014,"New experiment",19,"[0]","dist_absent",56,19,"yes","yes",1680,NA,NA,NA,NA,"NR","R","lp",NA,NA,NA,NA,NA,NA,"practice",3,"NR","in"
"9",1058.37290000002,14023.5015999998,14023.5015999998,3,3,"n",6,"['6']","y","#000000","no",3872.28449999998,1,"neutral","psycho","psycho","psycho",0,"uniform",0,0,0,0,NA,0,0,NA,0,0,0,0,8,8,NA,NA,NA,NA,0,0,0,NA,8,0,8,73.2296414732588,"Wed Aug  4 11:46:48 2021","The main experiment item","yes","red","no","1","circle",NA,"pinging_target_expectations 3.2.osexp","C:\Users\etp-cp-ping\Desktop\LocalPC-EXP",75,"no","mono","no",18,"no","white","no","yes",1050,NA,100,"psycho",8,0,8,"C:/Users/etp-cp-ping/Desktop/LocalPC-EXP/subject-4.csv","psycho",0,9,9,"Lentiform Loewenfeld","3.3.8","['hori', 'vert', 'hori', 'vert', 'hori', 'hori', 'vert', 'vert']","yes",109,"diamond","yes",0,NA,2,"legacy",NA,1024,2,48000,-16,"experiment",4,"even","green","no",5,"diamond",410480.9268,410575.7772,410575.8172,NA,417632.94,NA,NA,109348.4187,3877.67660000009,NA,109348.4406,447696.3021,450833.9329,NA,NA,NA,NA,3877.75469999997,418778.6724,NA,NA,447696.3167,419262.7779,447696.253,"New experiment",19,"[0]","dist_present",56,62,"yes","yes",1680,NA,NA,NA,NA,"NR","NR","lp",NA,NA,NA,NA,NA,NA,"practice",0,"NR","in"
"10",1185.31759999995,15208.8191999997,15208.8191999997,3,3,"n",6,"['6']","y","#000000","no",3872.28449999998,1,"neutral","psycho","psycho","psycho",0,"uniform",0,0,0,0,NA,0,0,NA,0,0,0,0,9,9,NA,NA,NA,NA,0,0,0,NA,9,0,9,73.2296414732588,"Wed Aug  4 11:46:48 2021","The main experiment item","yes","red","no","7","diamond",NA,"pinging_target_expectations 3.2.osexp","C:\Users\etp-cp-ping\Desktop\LocalPC-EXP",75,"no","mono","no",18,"no","white","no","yes",1050,NA,100,"psycho",9,0,9,"C:/Users/etp-cp-ping/Desktop/LocalPC-EXP/subject-4.csv","psycho",0,10,10,"Lentiform Loewenfeld","3.3.8","['hori', 'vert', 'hori', 'vert', 'vert', 'vert', 'hori', 'hori']","yes",109,"circles","yes",0,NA,2,"legacy",NA,1024,2,48000,-16,"experiment",4,"even","green","no",3,"circle",410480.9268,410575.7772,410575.8172,NA,417632.94,NA,NA,109348.4187,3877.67660000009,NA,109348.4406,450864.0836,453937.9354,NA,NA,NA,NA,3877.75469999997,418778.6724,NA,NA,450864.0981,419262.7779,450864.0338,"New experiment",19,"[0, 74.60534092497565, 81.0158289835982, 82.08008979123298, 80.0, 76.97801450283104, 73.78622561050501, 73.47011566282177, 73.6465350111003, 73.54412656525497, 73.80005551054904, 73.98011296462319, 74.1201677519612, 73.30245562053156, 73.4412157304694, 73.38294838897119, 73.33050456932109, 73.38294838897119, 74.42756798375962, 75.40326124672175, 74.94223460661004, 74.41133246304979, 74.78616714272519, 73.78143869430527, 74.02276158993008, 74.4043009509531, 75.08749936597606, 75.27156067652831, 74.06571141178549, 73.6248117171869, 74.02011531133563, 74.44000881320855, 74.38015252635844, 74.3203825192907, 74.540339363216, 74.23595807089326, 74.69007896306181, 74.54192148772914]","dist_present",56,48,"yes","yes",1680,NA,NA,NA,NA,"NR","NR","lp",NA,NA,NA,NA,NA,NA,"practice",5,"NR","in"
"11",2000.43240000017,17209.2515999999,17209.2515999999,3,3,"n",6,"['6']","y","#000000","no",454494.7424,1,"neutral","psycho","psycho","psycho",0,"uniform",0,0,0,0,NA,0,0,NA,0,0,0,0,10,10,NA,NA,NA,NA,0,0,0,NA,10,0,10,73.2296414732588,"Wed Aug  4 11:46:48 2021","The main experiment item","yes","red","no","None","circle",NA,"pinging_target_expectations 3.2.osexp","C:\Users\etp-cp-ping\Desktop\LocalPC-EXP",75,"no","mono","no",18,"no","white","no","yes",1050,NA,100,"psycho",10,0,10,"C:/Users/etp-cp-ping/Desktop/LocalPC-EXP/subject-4.csv","psycho",1,11,11,"Lentiform Loewenfeld","3.3.8","['hori', 'hori', 'vert', 'vert', 'vert', 'hori', 'vert', 'hori']","yes",109,"circles","yes",0,NA,2,"legacy",NA,1024,2,48000,-16,"experiment",4,"even","green","no",1,"diamond",410480.9268,410575.7772,410575.8172,NA,417632.94,NA,NA,109348.4187,3877.67660000009,NA,109348.4406,453968.0592,457806.1483,NA,NA,NA,NA,3877.75469999997,418778.6724,NA,NA,453968.0733,419262.7779,453968.0083,"New experiment",19,"[0]","dist_absent",56,29,"yes","yes",1680,NA,NA,NA,NA,"NR","NR","lp",NA,"Left",NA,NA,NA,NA,"practice",3,"NR","in"
"12",1172.58999999968,18381.8415999996,18381.8415999996,4,4,"n",6,"['6']","y","#000000","no",454494.7424,1,"neutral","psycho","psycho","psycho",0,"uniform",1,0,0,0,NA,0,0,NA,0,0,0,0,11,11,NA,NA,NA,NA,0,0,0,NA,11,0,11,73.2296414732588,"Wed Aug  4 11:46:48 2021","The main experiment item","yes","red","no","4","circle",NA,"pinging_target_expectations 3.2.osexp","C:\Users\etp-cp-ping\Desktop\LocalPC-EXP",75,"no","mono","no",18,"no","white","no","yes",1050,NA,100,"psycho",11,0,11,"C:/Users/etp-cp-ping/Desktop/LocalPC-EXP/subject-4.csv","psycho",1,12,12,"Lentiform Loewenfeld","3.3.8","['vert', 'vert', 'hori', 'hori', 'vert', 'vert', 'hori', 'hori']","no",209,"None","yes",0,NA,2,"legacy",NA,1024,2,48000,-16,"experiment",4,"even","green","no",0,"diamond",410480.9268,410575.7772,410575.8172,NA,417632.94,NA,NA,109348.4187,3877.67660000009,NA,109348.4406,457836.2124,461121.9802,NA,NA,NA,NA,3877.75469999997,418778.6724,NA,NA,457836.227,419262.7779,457836.1635,"New experiment",19,"[0]","dist_present",56,15,"yes","yes",1680,NA,NA,NA,NA,"NR","NR","lp",NA,NA,NA,NA,NA,NA,"practice",1,"NR","in"
"13",1234.21699999971,19616.0585999993,19616.0585999993,4,4,"n",6,"['6']","y","#000000","no",454494.7424,1,"neutral","psycho","psycho","psycho",0,"uniform",0,0,0,0,NA,0,0,NA,0,0,0,0,12,12,NA,NA,NA,NA,0,0,0,NA,12,0,12,73.2296414732588,"Wed Aug  4 11:46:48 2021","The main experiment item","yes","green","no","2","circle",NA,"pinging_target_expectations 3.2.osexp","C:\Users\etp-cp-ping\Desktop\LocalPC-EXP",75,"no","mono","no",18,"no","white","no","yes",1050,NA,100,"psycho",12,0,12,"C:/Users/etp-cp-ping/Desktop/LocalPC-EXP/subject-4.csv","psycho",1,13,13,"Lentiform Loewenfeld","3.3.8","['vert', 'vert', 'hori', 'vert', 'hori', 'hori', 'vert', 'hori']","no",209,"None","yes",0,NA,2,"legacy",NA,1024,2,48000,-16,"experiment",4,"even","red","no",1,"diamond",410480.9268,410575.7772,410575.8172,NA,417632.94,NA,NA,109348.4187,3877.67660000009,NA,109348.4406,461152.3277,464177.9439,NA,NA,NA,NA,3877.75469999997,418778.6724,NA,NA,461152.342,419262.7779,461152.2794,"New experiment",19,"[0]","dist_present",56,23,"yes","yes",1680,NA,NA,NA,NA,"NR","NR","lp",NA,NA,NA,NA,NA,NA,"practice",0,"NR","in"
"14",1989.32740000007,21605.3859999994,21605.3859999994,5,5,"n",6,"['6']","y","#000000","no",454494.7424,1,"neutral","psycho","psycho","psycho",0,"uniform",1,0,0,0,NA,0,0,NA,0,0,0,0,13,13,NA,NA,NA,NA,0,0,0,NA,13,0,13,73.2296414732588,"Wed Aug  4 11:46:48 2021","The main experiment item","yes","red","no","2","diamond",NA,"pinging_target_expectations 3.2.osexp","C:\Users\etp-cp-ping\Desktop\LocalPC-EXP",75,"no","mono","no",18,"no","white","no","yes",1050,NA,100,"psycho",13,0,13,"C:/Users/etp-cp-ping/Desktop/LocalPC-EXP/subject-4.csv","psycho",1,14,14,"Lentiform Loewenfeld","3.3.8","['vert', 'hori', 'vert', 'vert', 'vert', 'hori', 'hori', 'hori']","yes",109,"diamond","yes",0,NA,2,"legacy",NA,1024,2,48000,-16,"experiment",4,"even","green","no",0,"circle",410480.9268,410575.7772,410575.8172,NA,417632.94,NA,NA,109348.4187,3877.67660000009,NA,109348.4406,464208.2968,468033.9702,NA,NA,NA,NA,3877.75469999997,418778.6724,NA,NA,464208.3113,419262.7779,464208.2485,"New experiment",19,"[0]","dist_present",56,13,"yes","yes",1680,NA,NA,NA,NA,"NR","R","lp","Left",NA,"Left",NA,NA,NA,"practice",1,"NR","in"
"15",2000.3720999998,23605.7580999992,23605.7580999992,5,5,"n",6,"['6']","y","#000000","no",454494.7424,1,"neutral","psycho","psycho","psycho",0,"uniform",0,0,0,0,NA,0,0,NA,0,0,0,0,14,14,NA,NA,NA,NA,0,0,0,NA,14,0,14,73.2296414732588,"Wed Aug  4 11:46:48 2021","The main experiment item","yes","green","no","3","circle",NA,"pinging_target_expectations 3.2.osexp","C:\Users\etp-cp-ping\Desktop\LocalPC-EXP",75,"no","mono","no",18,"no","white","no","yes",1050,NA,100,"psycho",14,0,14,"C:/Users/etp-cp-ping/Desktop/LocalPC-EXP/subject-4.csv","psycho",1,15,15,"Lentiform Loewenfeld","3.3.8","['vert', 'hori', 'vert', 'vert', 'hori', 'vert', 'hori', 'hori']","yes",109,"circles","yes",0,NA,2,"legacy",NA,1024,2,48000,-16,"experiment",4,"even","red","no",2,"diamond",410480.9268,410575.7772,410575.8172,NA,417632.94,NA,NA,109348.4187,3877.67660000009,NA,109348.4406,468064.4244,471845.4449,NA,NA,NA,NA,3877.75469999997,418778.6724,NA,NA,468064.4388,419262.7779,468064.3757,"New experiment",19,"[0]","dist_present",56,34,"yes","yes",1680,NA,NA,NA,NA,"NR","NR","lp",NA,NA,NA,NA,NA,NA,"practice",0,"NR","in"
"16",2000.10229999997,25605.8603999991,25605.8603999991,5,5,"n",6,"['6']","y","#000000","no",454494.7424,1,"neutral","psycho","psycho","psycho",0,"uniform",0,0,0,0,NA,0,0,NA,0,0,0,0,15,15,NA,NA,NA,NA,0,0,0,NA,15,0,15,73.2296414732588,"Wed Aug  4 11:46:48 2021","The main experiment item","yes","red","no","None","diamond",NA,"pinging_target_expectations 3.2.osexp","C:\Users\etp-cp-ping\Desktop\LocalPC-EXP",75,"no","mono","no",18,"no","white","no","yes",1050,NA,100,"psycho",15,0,15,"C:/Users/etp-cp-ping/Desktop/LocalPC-EXP/subject-4.csv","psycho",1,16,16,"Lentiform Loewenfeld","3.3.8","['hori', 'vert', 'vert', 'vert', 'hori', 'vert', 'hori', 'hori']","yes",109,"circles","yes",0,NA,2,"legacy",NA,1024,2,48000,-16,"experiment",4,"even","green","no",7,"circle",410480.9268,410575.7772,410575.8172,NA,417632.94,NA,NA,109348.4187,3877.67660000009,NA,109348.4406,471875.469,475822.8346,NA,NA,NA,NA,3877.75469999997,418778.6724,NA,NA,471875.4833,419262.7779,471875.42,"New experiment",19,"[0]","dist_absent",56,89,"yes","yes",1680,NA,NA,NA,NA,"NR","NR","lp",NA,"Right",NA,NA,NA,NA,"practice",2,"NR","in"
"17",963.709800000244,26569.5701999994,26569.5701999994,6,6,"n",6,"['6']","y","#000000","no",476893.0833,1,"neutral","psycho","psycho","psycho",0,"uniform",1,0,0,0,NA,0,0,NA,0,0,0,0,16,16,NA,NA,NA,NA,0,0,0,NA,16,0,16,73.2296414732588,"Wed Aug  4 11:46:48 2021","The main experiment item","yes","green","no","None","circle",NA,"pinging_target_expectations 3.2.osexp","C:\Users\etp-cp-ping\Desktop\LocalPC-EXP",75,"no","mono","no",18,"no","white","no","yes",1050,NA,100,"psycho",16,0,16,"C:/Users/etp-cp-ping/Desktop/LocalPC-EXP/subject-4.csv","psycho",2,17,17,"Lentiform Loewenfeld","3.3.8","['vert', 'hori', 'vert', 'hori', 'vert', 'hori', 'vert', 'hori']","yes",109,"circles","yes",0,NA,2,"legacy",NA,1024,2,48000,-16,"experiment",4,"even","red","no",6,"diamond",410480.9268,410575.7772,410575.8172,NA,417632.94,NA,NA,109348.4187,3877.67660000009,NA,109348.4406,475852.9637,478850.0219,NA,NA,NA,NA,3877.75469999997,418778.6724,NA,NA,475852.9783,419262.7779,475852.9157,"New experiment",19,"[0]","dist_absent",56,79,"yes","yes",1680,NA,NA,NA,NA,"NR","R","lp",NA,"Right",NA,"Right",NA,NA,"practice",7,"NR","in"
"18",2000.17280000023,28569.7429999996,28569.7429999996,6,6,"n",6,"['6']","y","#000000","no",476893.0833,1,"neutral","psycho","psycho","psycho",0,"uniform",0,0,0,0,NA,0,0,NA,0,0,0,0,17,17,NA,NA,NA,NA,0,0,0,NA,17,0,17,73.2296414732588,"Wed Aug  4 11:46:48 2021","The main experiment item","yes","green","no","None","circle",NA,"pinging_target_expectations 3.2.osexp","C:\Users\etp-cp-ping\Desktop\LocalPC-EXP",75,"no","mono","no",18,"no","white","no","yes",1050,NA,100,"psycho",17,0,17,"C:/Users/etp-cp-ping/Desktop/LocalPC-EXP/subject-4.csv","psycho",2,18,18,"Lentiform Loewenfeld","3.3.8","['hori', 'hori', 'vert', 'hori', 'vert', 'vert', 'hori', 'vert']","no",209,"None","yes",0,NA,2,"legacy",NA,1024,2,48000,-16,"experiment",4,"even","red","no",1,"diamond",410480.9268,410575.7772,410575.8172,NA,417632.94,NA,NA,109348.4187,3877.67660000009,NA,109348.4406,478880.2812,482492.2839,NA,NA,NA,NA,3877.75469999997,418778.6724,NA,NA,478880.2955,419262.7779,478880.2316,"New experiment",19,"[0]","dist_absent",56,29,"yes","yes",1680,NA,NA,NA,NA,"NR","R","lp",NA,"Left",NA,NA,NA,NA,"practice",6,"NR","in"
"19",843.209199999808,29412.9521999994,29412.9521999994,6,6,"n",6,"['6']","y","#000000","no",476893.0833,1,"neutral","psycho","psycho","psycho",0,"uniform",0,0,0,0,NA,0,0,NA,0,0,0,0,18,18,NA,NA,NA,NA,0,0,0,NA,18,0,18,73.2296414732588,"Wed Aug  4 11:46:48 2021","The main experiment item","yes","red","no","0","circle",NA,"pinging_target_expectations 3.2.osexp","C:\Users\etp-cp-ping\Desktop\LocalPC-EXP",75,"no","mono","no",18,"no","white","no","yes",1050,NA,100,"psycho",18,0,18,"C:/Users/etp-cp-ping/Desktop/LocalPC-EXP/subject-4.csv","psycho",2,19,19,"Lentiform Loewenfeld","3.3.8","['vert', 'vert', 'vert', 'hori', 'hori', 'vert', 'hori', 'hori']","yes",109,"circles","yes",0,NA,2,"legacy",NA,1024,2,48000,-16,"experiment",4,"even","green","no",5,"diamond",410480.9268,410575.7772,410575.8172,NA,417632.94,NA,NA,109348.4187,3877.67660000009,NA,109348.4406,482522.4161,485185.9582,NA,NA,NA,NA,3877.75469999997,418778.6724,NA,NA,482522.4329,419262.7779,482522.3671,"New experiment",19,"[0, 74.6611798386718, 79.54119220457036, 80.82104897864146, 80.71463010924735, 79.2462579444228, 77.06619516688718, 74.19676720499668, 73.76964754177382]","dist_present",56,61,"yes","yes",1680,NA,NA,NA,NA,"NR","NR","lp",NA,"Right",NA,NA,NA,NA,"practice",1,"NR","in"
"20",1385.36819999991,30798.3203999993,30798.3203999993,7,7,"n",6,"['6']","y","#000000","no",488448.1128,1,"neutral","psycho","psycho","psycho",0,"uniform",1,0,0,0,NA,0,0,NA,0,0,0,0,19,19,NA,NA,NA,NA,0,0,0,NA,19,0,19,73.2296414732588,"Wed Aug  4 11:46:48 2021","The main experiment item","yes","red","no","0","circle",NA,"pinging_target_expectations 3.2.osexp","C:\Users\etp-cp-ping\Desktop\LocalPC-EXP",75,"no","mono","no",18,"no","white","no","yes",1050,NA,100,"psycho",19,0,19,"C:/Users/etp-cp-ping/Desktop/LocalPC-EXP/subject-4.csv","psycho",3,20,20,"Lentiform Loewenfeld","3.3.8","['hori', 'hori', 'hori', 'vert', 'vert', 'vert', 'vert', 'hori']","no",209,"None","yes",0,NA,2,"legacy",NA,1024,2,48000,-16,"experiment",4,"even","green","no",6,"diamond",410480.9268,410575.7772,410575.8172,NA,417632.94,NA,NA,109348.4187,3877.67660000009,NA,109348.4406,485216.1744,488449.9576,NA,NA,NA,NA,3877.75469999997,418778.6724,NA,NA,485216.1888,419262.7779,485216.1263,"New experiment",19,"[0, 104.8038524356443, 142.88153715462423, 185.96198364276543, 234.3073417343686, 282.495034741004, 332.20025562733684, 383.82351180313447, 435.0673594802957, 488.4771251771051, 539.4138935544516, 591.3817740518093, 628.8462457322034]","dist_present",56,71,"yes","no",1680,NA,NA,NA,NA,"NR","R","lp",NA,"Right",NA,"Right",NA,NA,"practice",5,"NR","in"
"21",980.676499999827,31778.9968999992,31778.9968999992,7,7,"n",6,"['6']","y","#000000","no",491455.7573,1,"neutral","psycho","psycho","psycho",0,"uniform",0,0,0,0,NA,0,0,NA,0,0,0,0,20,20,NA,NA,NA,NA,0,0,0,NA,20,0,20,73.2296414732588,"Wed Aug  4 11:46:48 2021","The main experiment item","yes","red","no","7","diamond",NA,"pinging_target_expectations 3.2.osexp","C:\Users\etp-cp-ping\Desktop\LocalPC-EXP",75,"no","mono","no",18,"no","white","no","yes",1050,NA,100,"psycho",20,0,20,"C:/Users/etp-cp-ping/Desktop/LocalPC-EXP/subject-4.csv","psycho",4,21,21,"Lentiform Loewenfeld","3.3.8","['hori', 'hori', 'vert', 'vert', 'vert', 'hori', 'hori', 'vert']","yes",109,"circles","yes",0,NA,2,"legacy",NA,1024,2,48000,-16,"experiment",4,"even","green","no",2,"circle",410480.9268,410575.7772,410575.8172,NA,417632.94,NA,NA,109348.4187,3877.67660000009,NA,109348.4406,488480.4151,491458.043,NA,NA,NA,NA,3877.75469999997,418778.6724,NA,NA,488480.4297,419262.7779,488480.3661,"New experiment",19,"[0]","dist_present",56,38,"yes","no",1680,NA,NA,NA,NA,"NR","NR","lp",NA,NA,NA,NA,NA,NA,"practice",6,"NR","in"
"22",1991.10490000021,33770.1017999994,33770.1017999994,7,7,"n",6,"['6']","y","#000000","no",495311.7533,1,"neutral","psycho","psycho","psycho",0,"uniform",0,0,0,0,NA,0,0,NA,0,0,0,0,21,21,NA,NA,NA,NA,0,0,0,NA,21,0,21,73.2296414732588,"Wed Aug  4 11:46:48 2021","The main experiment item","yes","green","no","1","diamond",NA,"pinging_target_expectations 3.2.osexp","C:\Users\etp-cp-ping\Desktop\LocalPC-EXP",75,"no","mono","no",18,"no","white","no","yes",1050,NA,100,"psycho",21,0,21,"C:/Users/etp-cp-ping/Desktop/LocalPC-EXP/subject-4.csv","psycho",5,22,22,"Lentiform Loewenfeld","3.3.8","['vert', 'hori', 'vert', 'hori', 'hori', 'vert', 'hori', 'vert']","yes",109,"diamond","yes",0,NA,2,"legacy",NA,1024,2,48000,-16,"experiment",4,"even","red","no",3,"circle",410480.9268,410575.7772,410575.8172,NA,417632.94,NA,NA,109348.4187,3877.67660000009,NA,109348.4406,491488.3227,495314.0074,NA,NA,NA,NA,3877.75469999997,418778.6724,NA,NA,491488.3372,419262.7779,491488.274,"New experiment",19,"[0]","dist_present",56,42,"yes","no",1680,NA,NA,NA,NA,"NR","NR","lp",NA,NA,NA,NA,NA,NA,"practice",2,"NR","in"
"23",1412.77839999972,35182.8801999991,35182.8801999991,8,8,"n",6,"['6']","y","#000000","no",498768.4468,1,"neutral","psycho","psycho","psycho",0,"uniform",1,0,0,0,NA,0,0,NA,0,0,0,0,22,22,NA,NA,NA,NA,0,0,0,NA,22,0,22,73.2296414732588,"Wed Aug  4 11:46:48 2021","The main experiment item","yes","red","no","5","circle",NA,"pinging_target_expectations 3.2.osexp","C:\Users\etp-cp-ping\Desktop\LocalPC-EXP",75,"no","mono","no",18,"no","white","no","yes",1050,NA,100,"psycho",22,0,22,"C:/Users/etp-cp-ping/Desktop/LocalPC-EXP/subject-4.csv","psycho",6,23,23,"Lentiform Loewenfeld","3.3.8","['vert', 'hori', 'vert', 'hori', 'hori', 'vert', 'vert', 'hori']","yes",109,"diamond","yes",0,NA,2,"legacy",NA,1024,2,48000,-16,"experiment",4,"even","green","no",4,"diamond",410480.9268,410575.7772,410575.8172,NA,417632.94,NA,NA,109348.4187,3877.67660000009,NA,109348.4406,495344.425,498769.882,NA,NA,NA,NA,3877.75469999997,418778.6724,NA,NA,495344.4392,419262.7779,495344.3743,"New experiment",19,"[0]","dist_present",56,56,"yes","no",1680,NA,NA,NA,NA,"NR","NR","lp","Right",NA,NA,NA,NA,NA,"practice",3,"NR","in"
"24",2000.45379999978,37183.3339999989,37183.3339999989,8,8,"n",6,"['6']","y","#000000","no",502700.0166,1,"neutral","psycho","psycho","psycho",0,"uniform",0,0,0,0,NA,0,0,NA,0,0,0,0,23,23,NA,NA,NA,NA,0,0,0,NA,23,0,23,73.2296414732588,"Wed Aug  4 11:46:48 2021","The main experiment item","yes","green","no","5","diamond",NA,"pinging_target_expectations 3.2.osexp","C:\Users\etp-cp-ping\Desktop\LocalPC-EXP",75,"no","mono","no",18,"no","white","no","yes",1050,NA,100,"psycho",23,0,23,"C:/Users/etp-cp-ping/Desktop/LocalPC-EXP/subject-4.csv","psycho",7,24,24,"Lentiform Loewenfeld","3.3.8","['hori', 'hori', 'vert', 'hori', 'hori', 'vert', 'vert', 'vert']","no",209,"None","yes",0,NA,2,"legacy",NA,1024,2,48000,-16,"experiment",4,"even","red","no",6,"circle",410480.9268,410575.7772,410575.8172,NA,417632.94,NA,NA,109348.4187,3877.67660000009,NA,109348.4406,498800.2119,502701.1532,NA,NA,NA,NA,3877.75469999997,418778.6724,NA,NA,498800.2266,419262.7779,498800.1613,"New experiment",19,"[0]","dist_present",56,76,"yes","no",1680,NA,NA,NA,NA,"NR","R","lp",NA,NA,NA,NA,NA,NA,"practice",4,"NR","in"
"25",1067.82269999984,38251.1566999987,38251.1566999987,9,9,"n",6,"['6']","y","#000000","no",505760.1682,1,"neutral","psycho","psycho","psycho",0,"uniform",1,0,0,0,NA,0,0,NA,0,0,0,0,24,24,NA,NA,NA,NA,0,0,0,NA,24,0,24,73.2296414732588,"Wed Aug  4 11:46:48 2021","The main experiment item","yes","green","no","4","circle",NA,"pinging_target_expectations 3.2.osexp","C:\Users\etp-cp-ping\Desktop\LocalPC-EXP",75,"no","mono","no",18,"no","white","no","yes",1050,NA,100,"psycho",24,0,24,"C:/Users/etp-cp-ping/Desktop/LocalPC-EXP/subject-4.csv","psycho",8,25,25,"Lentiform Loewenfeld","3.3.8","['vert', 'vert', 'hori', 'hori', 'vert', 'vert', 'hori', 'hori']","no",209,"None","yes",0,NA,2,"legacy",NA,1024,2,48000,-16,"experiment",4,"even","red","no",2,"diamond",410480.9268,410575.7772,410575.8172,NA,417632.94,NA,NA,109348.4187,3877.67660000009,NA,109348.4406,502731.2543,505762.0396,NA,NA,NA,NA,3877.75469999997,418778.6724,NA,NA,502731.2687,419262.7779,502731.2052,"New experiment",19,"[0]","dist_present",56,35,"yes","no",1680,NA,NA,NA,NA,"NR","NR","lp",NA,"Left",NA,"Left",NA,NA,"practice",6,"NR","in"
"26",2000.31179999997,40251.4684999987,40251.4684999987,9,9,"n",6,"['6']","y","#000000","no",509612.327,1,"neutral","psycho","psycho","psycho",0,"uniform",0,0,0,0,NA,0,0,NA,0,0,0,0,25,25,NA,NA,NA,NA,0,0,0,NA,25,0,25,73.2296414732588,"Wed Aug  4 11:46:48 2021","The main experiment item","yes","red","no","2","circle",NA,"pinging_target_expectations 3.2.osexp","C:\Users\etp-cp-ping\Desktop\LocalPC-EXP",75,"no","mono","no",18,"no","white","no","yes",1050,NA,100,"psycho",25,0,25,"C:/Users/etp-cp-ping/Desktop/LocalPC-EXP/subject-4.csv","psycho",9,26,26,"Lentiform Loewenfeld","3.3.8","['vert', 'vert', 'hori', 'vert', 'hori', 'hori', 'vert', 'hori']","no",209,"None","yes",0,NA,2,"legacy",NA,1024,2,48000,-16,"experiment",4,"even","green","no",5,"diamond",410480.9268,410575.7772,410575.8172,NA,417632.94,NA,NA,109348.4187,3877.67660000009,NA,109348.4406,505793.254,509613.4502,NA,NA,NA,NA,3877.75469999997,418778.6724,NA,NA,505793.2685,419262.7779,505793.2042,"New experiment",19,"[0]","dist_present",56,63,"yes","no",1680,NA,NA,NA,NA,"NR","NR","lp",NA,NA,NA,NA,NA,NA,"practice",2,"NR","in"
"27",885.380600000208,41136.8490999989,41136.8490999989,10,10,"n",6,"['6']","y","#000000","no",512576.0549,1,"neutral","psycho","psycho","psycho",0,"uniform",1,0,0,0,NA,0,0,NA,0,0,0,0,26,26,NA,NA,NA,NA,0,0,0,NA,26,0,26,73.2296414732588,"Wed Aug  4 11:46:48 2021","The main experiment item","yes","red","no","3","circle",NA,"pinging_target_expectations 3.2.osexp","C:\Users\etp-cp-ping\Desktop\LocalPC-EXP",75,"no","mono","no",18,"no","white","no","yes",1050,NA,100,"psycho",26,0,26,"C:/Users/etp-cp-ping/Desktop/LocalPC-EXP/subject-4.csv","psycho",10,27,27,"Lentiform Loewenfeld","3.3.8","['vert', 'hori', 'vert', 'hori', 'hori', 'vert', 'vert', 'hori']","yes",109,"circles","yes",0,NA,2,"legacy",NA,1024,2,48000,-16,"experiment",4,"even","green","no",6,"diamond",410480.9268,410575.7772,410575.8172,NA,417632.94,NA,NA,109348.4187,3877.67660000009,NA,109348.4406,509643.5633,512577.9891,NA,NA,NA,NA,3877.75469999997,418778.6724,NA,NA,509643.5777,419262.7779,509643.5136,"New experiment",19,"[0]","dist_present",56,74,"yes","no",1680,NA,NA,NA,NA,"NR","NR","lp",NA,NA,NA,NA,NA,NA,"practice",5,"NR","in"
"28",1741.32079999981,42878.1698999987,42878.1698999987,10,10,"n",6,"['6']","y","#000000","no",516239.8512,1,"neutral","psycho","psycho","psycho",0,"uniform",0,0,0,0,NA,0,0,NA,0,0,0,0,27,27,NA,NA,NA,NA,0,0,0,NA,27,0,27,73.2296414732588,"Wed Aug  4 11:46:48 2021","The main experiment item","yes","green","no","5","diamond",NA,"pinging_target_expectations 3.2.osexp","C:\Users\etp-cp-ping\Desktop\LocalPC-EXP",75,"no","mono","no",18,"no","white","no","yes",1050,NA,100,"psycho",27,0,27,"C:/Users/etp-cp-ping/Desktop/LocalPC-EXP/subject-4.csv","psycho",11,28,28,"Lentiform Loewenfeld","3.3.8","['hori', 'vert', 'vert', 'vert', 'hori', 'hori', 'hori', 'vert']","no",209,"None","yes",0,NA,2,"legacy",NA,1024,2,48000,-16,"experiment",4,"even","red","no",1,"circle",410480.9268,410575.7772,410575.8172,NA,417632.94,NA,NA,109348.4187,3877.67660000009,NA,109348.4406,512608.4329,516241.8916,NA,NA,NA,NA,3877.75469999997,418778.6724,NA,NA,512608.447,419262.7779,512608.383,"New experiment",19,"[0]","dist_present",56,26,"yes","no",1680,NA,NA,NA,NA,"NR","NR","lp",NA,NA,NA,NA,NA,NA,"practice",6,"NR","in"
"29",1393.64620000019,44271.8160999989,44271.8160999989,11,11,"n",6,"['6']","y","#000000","no",519408.3386,1,"neutral","psycho","psycho","psycho",0,"uniform",1,0,0,0,NA,0,0,NA,0,0,0,0,28,28,NA,NA,NA,NA,0,0,0,NA,28,0,28,73.2296414732588,"Wed Aug  4 11:46:48 2021","The main experiment item","yes","red","no","4","diamond",NA,"pinging_target_expectations 3.2.osexp","C:\Users\etp-cp-ping\Desktop\LocalPC-EXP",75,"no","mono","no",18,"no","white","no","yes",1050,NA,100,"psycho",28,0,28,"C:/Users/etp-cp-ping/Desktop/LocalPC-EXP/subject-4.csv","psycho",12,29,29,"Lentiform Loewenfeld","3.3.8","['vert', 'hori', 'hori', 'vert', 'vert', 'hori', 'hori', 'vert']","no",209,"None","yes",0,NA,2,"legacy",NA,1024,2,48000,-16,"experiment",4,"even","green","no",6,"circle",410480.9268,410575.7772,410575.8172,NA,417632.94,NA,NA,109348.4187,3877.67660000009,NA,109348.4406,516272.3152,519409.8834,NA,NA,NA,NA,3877.75469999997,418778.6724,NA,NA,516272.3296,419262.7779,516272.2652,"New experiment",19,"[0]","dist_present",56,75,"yes","no",1680,NA,NA,NA,NA,"NR","NR","lp",NA,"Right",NA,"Right",NA,NA,"practice",1,"NR","in"
"30",1238.3278000002,45510.1438999991,45510.1438999991,12,12,"n",6,"['6']","y","#000000","no",522303.8174,1,"neutral","psycho","psycho","psycho",0,"uniform",1,0,0,0,NA,0,0,NA,0,0,0,0,29,29,NA,NA,NA,NA,0,0,0,NA,29,0,29,73.2296414732588,"Wed Aug  4 11:46:48 2021","The main experiment item","yes","green","no","None","diamond",NA,"pinging_target_expectations 3.2.osexp","C:\Users\etp-cp-ping\Desktop\LocalPC-EXP",75,"no","mono","no",18,"no","white","no","yes",1050,NA,100,"psycho",29,0,29,"C:/Users/etp-cp-ping/Desktop/LocalPC-EXP/subject-4.csv","psycho",13,30,30,"Lentiform Loewenfeld","3.3.8","['hori', 'vert', 'vert', 'vert', 'hori', 'hori', 'vert', 'hori']","yes",109,"diamond","yes",0,NA,2,"legacy",NA,1024,2,48000,-16,"experiment",4,"even","red","no",7,"circle",410480.9268,410575.7772,410575.8172,NA,417632.94,NA,NA,109348.4187,3877.67660000009,NA,109348.4406,519440.2295,522305.8762,NA,NA,NA,NA,3877.75469999997,418778.6724,NA,NA,519440.244,419262.7779,519440.1805,"New experiment",19,"[0]","dist_absent",56,89,"yes","no",1680,NA,NA,NA,NA,"NR","NR","lp",NA,"Right",NA,NA,NA,NA,"practice",6,"NR","in"
"31",2000.14860000013,47510.2924999992,47510.2924999992,12,12,"n",6,"['6']","y","#000000","no",526197.3192,1,"neutral","psycho","psycho","psycho",0,"uniform",0,0,0,0,NA,0,0,NA,0,0,0,0,30,30,NA,NA,NA,NA,0,0,0,NA,30,0,30,73.2296414732588,"Wed Aug  4 11:46:48 2021","The main experiment item","yes","green","no","0","circle",NA,"pinging_target_expectations 3.2.osexp","C:\Users\etp-cp-ping\Desktop\LocalPC-EXP",75,"no","mono","no",18,"no","white","no","yes",1050,NA,100,"psycho",30,0,30,"C:/Users/etp-cp-ping/Desktop/LocalPC-EXP/subject-4.csv","psycho",14,31,31,"Lentiform Loewenfeld","3.3.8","['hori', 'hori', 'vert', 'vert', 'hori', 'hori', 'vert', 'vert']","no",209,"None","yes",0,NA,2,"legacy",NA,1024,2,48000,-16,"experiment",4,"even","red","no",4,"diamond",410480.9268,410575.7772,410575.8172,NA,417632.94,NA,NA,109348.4187,3877.67660000009,NA,109348.4406,522339.0496,526198.4492,NA,NA,NA,NA,3877.75469999997,418778.6724,NA,NA,522339.0641,419262.7779,522339.0019,"New experiment",19,"[0]","dist_present",56,51,"yes","no",1680,NA,NA,NA,NA,"NR","NR","lp",NA,NA,NA,NA,NA,NA,"practice",7,"NR","in"
"32",2000.3073999997,49510.5998999989,49510.5998999989,12,12,"n",6,"['6']","y","#000000","no",530012.5505,1,"neutral","psycho","psycho","psycho",0,"uniform",0,0,0,0,NA,0,0,NA,0,0,0,0,31,31,NA,NA,NA,NA,0,0,0,NA,31,0,31,73.2296414732588,"Wed Aug  4 11:46:48 2021","The main experiment item","yes","red","no","None","circle",NA,"pinging_target_expectations 3.2.osexp","C:\Users\etp-cp-ping\Desktop\LocalPC-EXP",75,"no","mono","no",18,"no","white","no","yes",1050,NA,100,"psycho",31,0,31,"C:/Users/etp-cp-ping/Desktop/LocalPC-EXP/subject-4.csv","psycho",15,32,32,"Lentiform Loewenfeld","3.3.8","['vert', 'hori', 'vert', 'hori', 'vert', 'hori', 'vert', 'hori']","yes",109,"circles","yes",0,NA,2,"legacy",NA,1024,2,48000,-16,"experiment",4,"even","green","no",6,"diamond",410480.9268,410575.7772,410575.8172,NA,417632.94,NA,NA,109348.4187,3877.67660000009,NA,109348.4406,526229.4179,530013.6732,NA,NA,NA,NA,3877.75469999997,418778.6724,NA,NA,526229.4322,419262.7779,526229.3686,"New experiment",19,"[0]","dist_absent",56,79,"yes","no",1680,NA,NA,NA,NA,"NR","NR","lp",NA,"Right",NA,"Right",NA,NA,"practice",4,"NR","in"
"33",891.408099999768,50402.0079999987,50402.0079999987,13,13,"n",6,"['6']","y","#000000","no",532848.1267,1,"neutral","psycho","psycho","psycho",0,"uniform",1,0,0,0,NA,0,0,NA,0,0,0,0,32,32,NA,NA,NA,NA,0,0,0,NA,32,0,32,73.2296414732588,"Wed Aug  4 11:46:48 2021","The main experiment item","yes","green","no","1","circle",NA,"pinging_target_expectations 3.2.osexp","C:\Users\etp-cp-ping\Desktop\LocalPC-EXP",75,"no","mono","no",18,"no","white","no","yes",1050,NA,100,"psycho",32,0,32,"C:/Users/etp-cp-ping/Desktop/LocalPC-EXP/subject-4.csv","psycho",16,33,33,"Lentiform Loewenfeld","3.3.8","['vert', 'hori', 'hori', 'hori', 'vert', 'hori', 'vert', 'vert']","no",209,"None","yes",0,NA,2,"legacy",NA,1024,2,48000,-16,"experiment",4,"even","red","no",4,"diamond",410480.9268,410575.7772,410575.8172,NA,417632.94,NA,NA,109348.4187,3877.67660000009,NA,109348.4406,530043.6188,532849.8605,NA,NA,NA,NA,3877.75469999997,418778.6724,NA,NA,530043.6331,419262.7779,530043.5693,"New experiment",19,"[0]","dist_present",56,52,"yes","no",1680,NA,NA,NA,NA,"NR","NR","lp","Left",NA,NA,NA,NA,NA,"practice",6,"NR","in"
"34",1150.96690000023,51552.9748999989,51552.9748999989,13,13,"n",6,"['6']","y","#000000","no",535999.9708,1,"neutral","psycho","psycho","psycho",0,"uniform",0,0,0,0,NA,0,0,NA,0,0,0,0,33,33,NA,NA,NA,NA,0,0,0,NA,33,0,33,73.2296414732588,"Wed Aug  4 11:46:48 2021","The main experiment item","yes","green","no","None","diamond",NA,"pinging_target_expectations 3.2.osexp","C:\Users\etp-cp-ping\Desktop\LocalPC-EXP",75,"no","mono","no",18,"no","white","no","yes",1050,NA,100,"psycho",33,0,33,"C:/Users/etp-cp-ping/Desktop/LocalPC-EXP/subject-4.csv","psycho",17,34,34,"Lentiform Loewenfeld","3.3.8","['vert', 'hori', 'hori', 'vert', 'hori', 'vert', 'hori', 'vert']","no",209,"None","yes",0,NA,2,"legacy",NA,1024,2,48000,-16,"experiment",4,"even","red","no",3,"circle",410480.9268,410575.7772,410575.8172,NA,417632.94,NA,NA,109348.4187,3877.67660000009,NA,109348.4406,532880.206,536001.8785,NA,NA,NA,NA,3877.75469999997,418778.6724,NA,NA,532880.2207,419262.7779,532880.1569,"New experiment",19,"[0]","dist_absent",56,49,"yes","no",1680,NA,NA,NA,NA,"NR","NR","lp",NA,"Left",NA,NA,NA,NA,"practice",4,"NR","in"
"35",2000.69339999987,53553.6682999988,53553.6682999988,13,13,"n",6,"['6']","y","#000000","no",540027.7538,1,"neutral","psycho","psycho","psycho",0,"uniform",0,0,0,0,NA,0,0,NA,0,0,0,0,34,34,NA,NA,NA,NA,0,0,0,NA,34,0,34,73.2296414732588,"Wed Aug  4 11:46:48 2021","The main experiment item","yes","red","no","None","circle",NA,"pinging_target_expectations 3.2.osexp","C:\Users\etp-cp-ping\Desktop\LocalPC-EXP",75,"no","mono","no",18,"no","white","no","yes",1050,NA,100,"psycho",34,0,34,"C:/Users/etp-cp-ping/Desktop/LocalPC-EXP/subject-4.csv","psycho",18,35,35,"Lentiform Loewenfeld","3.3.8","['vert', 'hori', 'vert', 'hori', 'hori', 'vert', 'hori', 'vert']","no",209,"None","yes",0,NA,2,"legacy",NA,1024,2,48000,-16,"experiment",4,"even","green","no",5,"diamond",410480.9268,410575.7772,410575.8172,NA,417632.94,NA,NA,109348.4187,3877.67660000009,NA,109348.4406,536032.2275,540028.8737,NA,NA,NA,NA,3877.75469999997,418778.6724,NA,NA,536032.242,419262.7779,536032.1773,"New experiment",19,"[0]","dist_absent",56,69,"yes","no",1680,NA,NA,NA,NA,"NR","R","lp",NA,"Right",NA,NA,NA,NA,"practice",3,"NR","in"
"36",652.697600000072,54206.3658999989,54206.3658999989,14,14,"n",6,"['6']","y","#000000","no",542608.3942,1,"neutral","psycho","psycho","psycho",0,"uniform",1,0,0,0,NA,0,0,NA,0,0,0,0,35,35,NA,NA,NA,NA,0,0,0,NA,35,0,35,73.2296414732588,"Wed Aug  4 11:46:48 2021","The main experiment item","yes","green","no","None","diamond",NA,"pinging_target_expectations 3.2.osexp","C:\Users\etp-cp-ping\Desktop\LocalPC-EXP",75,"no","mono","no",18,"no","white","no","yes",1050,NA,100,"psycho",35,0,35,"C:/Users/etp-cp-ping/Desktop/LocalPC-EXP/subject-4.csv","psycho",19,36,36,"Lentiform Loewenfeld","3.3.8","['vert', 'vert', 'hori', 'hori', 'hori', 'vert', 'vert', 'hori']","no",209,"None","yes",0,NA,2,"legacy",NA,1024,2,48000,-16,"experiment",4,"even","red","no",2,"circle",410480.9268,410575.7772,410575.8172,NA,417632.94,NA,NA,109348.4187,3877.67660000009,NA,109348.4406,540058.8957,542609.8279,NA,NA,NA,NA,3877.75469999997,418778.6724,NA,NA,540058.9102,419262.7779,540058.8469,"New experiment",19,"[0]","dist_absent",56,39,"yes","no",1680,NA,NA,NA,NA,"NR","R","lp",NA,"Left",NA,"Left",NA,NA,"practice",5,"NR","in"
"37",1175.71209999966,55382.0779999985,55382.0779999985,15,15,"n",6,"['6']","y","#000000","no",545744.1001,1,"neutral","psycho","psycho","psycho",0,"uniform",1,0,0,0,NA,0,0,NA,0,0,0,0,36,36,NA,NA,NA,NA,0,0,0,NA,36,0,36,73.2296414732588,"Wed Aug  4 11:46:48 2021","The main experiment item","yes","red","no","1","diamond",NA,"pinging_target_expectations 3.2.osexp","C:\Users\etp-cp-ping\Desktop\LocalPC-EXP",75,"no","mono","no",18,"no","white","no","yes",1050,NA,100,"psycho",36,0,36,"C:/Users/etp-cp-ping/Desktop/LocalPC-EXP/subject-4.csv","psycho",20,37,37,"Lentiform Loewenfeld","3.3.8","['vert', 'hori', 'vert', 'vert', 'hori', 'hori', 'hori', 'vert']","yes",109,"diamond","yes",0,NA,2,"legacy",NA,1024,2,48000,-16,"experiment",4,"even","green","no",4,"circle",410480.9268,410575.7772,410575.8172,NA,417632.94,NA,NA,109348.4187,3877.67660000009,NA,109348.4406,542640.4028,545745.842,NA,NA,NA,NA,3877.75469999997,418778.6724,NA,NA,542640.4171,419262.7779,542640.3542,"New experiment",19,"[0]","dist_present",56,52,"yes","no",1680,NA,NA,NA,NA,"NR","NR","lp","Left",NA,NA,NA,NA,NA,"practice",2,"NR","in"
"38",1426.43409999984,56808.5120999984,56808.5120999984,15,15,"n",6,"['6']","y","#000000","no",548976.2074,1,"neutral","psycho","psycho","psycho",0,"uniform",0,0,0,0,NA,0,0,NA,0,0,0,0,37,37,NA,NA,NA,NA,0,0,0,NA,37,0,37,73.2296414732588,"Wed Aug  4 11:46:48 2021","The main experiment item","yes","green","no","6","circle",NA,"pinging_target_expectations 3.2.osexp","C:\Users\etp-cp-ping\Desktop\LocalPC-EXP",75,"no","mono","no",18,"no","white","no","yes",1050,NA,100,"psycho",37,0,37,"C:/Users/etp-cp-ping/Desktop/LocalPC-EXP/subject-4.csv","psycho",21,38,38,"Lentiform Loewenfeld","3.3.8","['vert', 'hori', 'hori', 'hori', 'vert', 'vert', 'hori', 'vert']","yes",109,"diamond","yes",0,NA,2,"legacy",NA,1024,2,48000,-16,"experiment",4,"even","red","no",4,"diamond",410480.9268,410575.7772,410575.8172,NA,417632.94,NA,NA,109348.4187,3877.67660000009,NA,109348.4406,545776.1642,548977.881,NA,NA,NA,NA,3877.75469999997,418778.6724,NA,NA,545776.1788,419262.7779,545776.1144,"New experiment",19,"[0]","dist_present",56,57,"yes","no",1680,NA,NA,NA,NA,"R","NR","lp","Right",NA,"Right",NA,NA,NA,"practice",4,"NR","in"
"39",1874.76340000017,58683.2754999985,58683.2754999985,16,16,"n",6,"['6']","y","#000000","no",552623.7548,1,"neutral","psycho","psycho","psycho",0,"uniform",1,0,0,0,NA,0,0,NA,0,0,0,0,38,38,NA,NA,NA,NA,0,0,0,NA,38,0,38,73.2296414732588,"Wed Aug  4 11:46:48 2021","The main experiment item","yes","red","no","1","circle",NA,"pinging_target_expectations 3.2.osexp","C:\Users\etp-cp-ping\Desktop\LocalPC-EXP",75,"no","mono","no",18,"no","white","no","yes",1050,NA,100,"psycho",38,0,38,"C:/Users/etp-cp-ping/Desktop/LocalPC-EXP/subject-4.csv","psycho",22,39,39,"Lentiform Loewenfeld","3.3.8","['vert', 'hori', 'hori', 'hori', 'vert', 'vert', 'vert', 'hori']","no",209,"None","yes",0,NA,2,"legacy",NA,1024,2,48000,-16,"experiment",4,"even","green","no",3,"diamond",410480.9268,410575.7772,410575.8172,NA,417632.94,NA,NA,109348.4187,3877.67660000009,NA,109348.4406,549008.2851,552625.9517,NA,NA,NA,NA,3877.75469999997,418778.6724,NA,NA,549008.2995,419262.7779,549008.2351,"New experiment",19,"[0]","dist_present",56,42,"yes","no",1680,NA,NA,NA,NA,"NR","NR","lp",NA,NA,NA,NA,NA,NA,"practice",4,"R","in"
"40",2000.12490000017,60683.4003999987,60683.4003999987,16,16,"n",6,"['6']","y","#000000","no",556484.3188,1,"neutral","psycho","psycho","psycho",0,"uniform",0,0,0,0,NA,0,0,NA,0,0,0,0,39,39,NA,NA,NA,NA,0,0,0,NA,39,0,39,73.2296414732588,"Wed Aug  4 11:46:48 2021","The main experiment item","yes","red","no","3","circle",NA,"pinging_target_expectations 3.2.osexp","C:\Users\etp-cp-ping\Desktop\LocalPC-EXP",75,"no","mono","no",18,"no","white","no","yes",1050,NA,100,"psycho",39,0,39,"C:/Users/etp-cp-ping/Desktop/LocalPC-EXP/subject-4.csv","psycho",23,40,40,"Lentiform Loewenfeld","3.3.8","['vert', 'hori', 'hori', 'hori', 'vert', 'hori', 'vert', 'vert']","yes",109,"circles","yes",0,NA,2,"legacy",NA,1024,2,48000,-16,"experiment",4,"even","green","no",2,"diamond",410480.9268,410575.7772,410575.8172,NA,417632.94,NA,NA,109348.4187,3877.67660000009,NA,109348.4406,552656.4232,556485.4489,NA,NA,NA,NA,3877.75469999997,418778.6724,NA,NA,552656.438,419262.7779,552656.3744,"New experiment",19,"[0]","dist_present",56,34,"yes","no",1680,NA,NA,NA,NA,"NR","NR","lp",NA,NA,NA,NA,NA,NA,"practice",3,"NR","in"
"41",1509.19180000026,62192.592199999,62192.592199999,17,17,"n",6,"['6']","y","#000000","no",559919.5897,1,"neutral","psycho","psycho","psycho",0,"uniform",1,0,0,0,NA,0,0,NA,0,0,0,0,40,40,NA,NA,NA,NA,0,0,0,NA,40,0,40,73.2296414732588,"Wed Aug  4 11:46:48 2021","The main experiment item","yes","green","no","5","circle",NA,"pinging_target_expectations 3.2.osexp","C:\Users\etp-cp-ping\Desktop\LocalPC-EXP",75,"no","mono","no",18,"no","white","no","yes",1050,NA,100,"psycho",40,0,40,"C:/Users/etp-cp-ping/Desktop/LocalPC-EXP/subject-4.csv","psycho",24,41,41,"Lentiform Loewenfeld","3.3.8","['hori', 'vert', 'vert', 'hori', 'hori', 'vert', 'hori', 'vert']","no",209,"None","yes",0,NA,2,"legacy",NA,1024,2,48000,-16,"experiment",4,"even","red","no",3,"diamond",410480.9268,410575.7772,410575.8172,NA,417632.94,NA,NA,109348.4187,3877.67660000009,NA,109348.4406,556518.1063,559921.8491,NA,NA,NA,NA,3877.75469999997,418778.6724,NA,NA,556518.1207,419262.7779,556518.0583,"New experiment",19,"[0]","dist_present",56,46,"yes","no",1680,NA,NA,NA,NA,"NR","NR","lp",NA,NA,NA,NA,NA,NA,"practice",2,"NR","in"
"42",1123.40310000035,63315.9952999993,63315.9952999993,18,18,"n",6,"['6']","y","#000000","no",562800.3213,1,"neutral","psycho","psycho","psycho",0,"uniform",1,0,0,0,NA,0,0,NA,0,0,0,0,41,41,NA,NA,NA,NA,0,0,0,NA,41,0,41,73.2296414732588,"Wed Aug  4 11:46:48 2021","The main experiment item","yes","green","no","7","diamond",NA,"pinging_target_expectations 3.2.osexp","C:\Users\etp-cp-ping\Desktop\LocalPC-EXP",75,"no","mono","no",18,"no","white","no","yes",1050,NA,100,"psycho",41,0,41,"C:/Users/etp-cp-ping/Desktop/LocalPC-EXP/subject-4.csv","psycho",25,42,42,"Lentiform Loewenfeld","3.3.8","['hori', 'hori', 'vert', 'vert', 'hori', 'hori', 'vert', 'vert']","yes",109,"diamond","yes",0,NA,2,"legacy",NA,1024,2,48000,-16,"experiment",4,"even","red","no",0,"circle",410480.9268,410575.7772,410575.8172,NA,417632.94,NA,NA,109348.4187,3877.67660000009,NA,109348.4406,559952.2253,562802.1255,NA,NA,NA,NA,3877.75469999997,418778.6724,NA,NA,559952.2399,419262.7779,559952.1769,"New experiment",19,"[0]","dist_present",56,18,"yes","no",1680,NA,NA,NA,NA,"NR","NR","lp","Right",NA,NA,NA,NA,NA,"practice",3,"NR","in"
"43",1293.37359999993,64609.3688999992,64609.3688999992,18,18,"n",6,"['6']","y","#000000","no",566176.1124,1,"neutral","psycho","psycho","psycho",0,"uniform",0,0,0,0,NA,0,0,NA,0,0,0,0,42,42,NA,NA,NA,NA,0,0,0,NA,42,0,42,73.2296414732588,"Wed Aug  4 11:46:48 2021","The main experiment item","yes","green","no","0","circle",NA,"pinging_target_expectations 3.2.osexp","C:\Users\etp-cp-ping\Desktop\LocalPC-EXP",75,"no","mono","no",18,"no","white","no","yes",1050,NA,100,"psycho",42,0,42,"C:/Users/etp-cp-ping/Desktop/LocalPC-EXP/subject-4.csv","psycho",26,43,43,"Lentiform Loewenfeld","3.3.8","['vert', 'hori', 'vert', 'hori', 'hori', 'vert', 'vert', 'hori']","yes",109,"diamond","yes",0,NA,2,"legacy",NA,1024,2,48000,-16,"experiment",4,"even","red","no",7,"diamond",410480.9268,410575.7772,410575.8172,NA,417632.94,NA,NA,109348.4187,3877.67660000009,NA,109348.4406,562832.685,566177.9188,NA,NA,NA,NA,3877.75469999997,418778.6724,NA,NA,562832.6992,419262.7779,562832.6363,"New experiment",19,"[0]","dist_present",56,81,"yes","no",1680,NA,NA,NA,NA,"NR","NR","lp",NA,"Right",NA,NA,NA,NA,"practice",0,"NR","in"
"44",826.91109999991,65436.2799999992,65436.2799999992,19,19,"n",6,"['6']","y","#000000","no",569136.3026,1,"neutral","psycho","psycho","psycho",0,"uniform",1,0,0,0,NA,0,0,NA,0,0,0,0,43,43,NA,NA,NA,NA,0,0,0,NA,43,0,43,73.2296414732588,"Wed Aug  4 11:46:48 2021","The main experiment item","yes","green","no","6","diamond",NA,"pinging_target_expectations 3.2.osexp","C:\Users\etp-cp-ping\Desktop\LocalPC-EXP",75,"no","mono","no",18,"no","white","no","yes",1050,NA,100,"psycho",43,0,43,"C:/Users/etp-cp-ping/Desktop/LocalPC-EXP/subject-4.csv","psycho",27,44,44,"Lentiform Loewenfeld","3.3.8","['vert', 'hori', 'hori', 'vert', 'hori', 'hori', 'vert', 'vert']","no",209,"None","yes",0,NA,2,"legacy",NA,1024,2,48000,-16,"experiment",4,"even","red","no",5,"circle",410480.9268,410575.7772,410575.8172,NA,417632.94,NA,NA,109348.4187,3877.67660000009,NA,109348.4406,566208.2985,569137.7949,NA,NA,NA,NA,3877.75469999997,418778.6724,NA,NA,566208.3129,419262.7779,566208.2491,"New experiment",19,"[0]","dist_present",56,67,"yes","no",1680,NA,NA,NA,NA,"NR","NR","lp",NA,NA,NA,NA,NA,NA,"practice",7,"NR","in"
"45",2000.27520000003,67436.5551999992,67436.5551999992,19,19,"n",6,"['6']","y","#000000","no",573137.7448,1,"neutral","psycho","psycho","psycho",0,"uniform",0,0,0,0,NA,0,0,NA,0,0,0,0,44,44,NA,NA,NA,NA,0,0,0,NA,44,0,44,73.2296414732588,"Wed Aug  4 11:46:48 2021","The main experiment item","yes","green","no","4","circle",NA,"pinging_target_expectations 3.2.osexp","C:\Users\etp-cp-ping\Desktop\LocalPC-EXP",75,"no","mono","no",18,"no","white","no","yes",1050,NA,100,"psycho",44,0,44,"C:/Users/etp-cp-ping/Desktop/LocalPC-EXP/subject-4.csv","psycho",28,45,45,"Lentiform Loewenfeld","3.3.8","['vert', 'hori', 'hori', 'vert', 'hori', 'vert', 'hori', 'vert']","no",209,"None","yes",0,NA,2,"legacy",NA,1024,2,48000,-16,"experiment",4,"even","red","no",7,"diamond",410480.9268,410575.7772,410575.8172,NA,417632.94,NA,NA,109348.4187,3877.67660000009,NA,109348.4406,569168.1881,573138.8708,NA,NA,NA,NA,3877.75469999997,418778.6724,NA,NA,569168.2026,419262.7779,569168.1364,"New experiment",19,"[0]","dist_present",56,85,"yes","no",1680,NA,NA,NA,NA,"NR","NR","lp",NA,"Right",NA,NA,NA,NA,"practice",5,"NR","in"
"46",917.304500000319,68353.8596999995,68353.8596999995,20,20,"n",6,"['6']","y","#000000","no",575904.5613,1,"neutral","psycho","psycho","psycho",0,"uniform",1,0,0,0,NA,0,0,NA,0,0,0,0,45,45,NA,NA,NA,NA,0,0,0,NA,45,0,45,73.2296414732588,"Wed Aug  4 11:46:48 2021","The main experiment item","yes","red","no","None","diamond",NA,"pinging_target_expectations 3.2.osexp","C:\Users\etp-cp-ping\Desktop\LocalPC-EXP",75,"no","mono","no",18,"no","white","no","yes",1050,NA,100,"psycho",45,0,45,"C:/Users/etp-cp-ping/Desktop/LocalPC-EXP/subject-4.csv","psycho",29,46,46,"Lentiform Loewenfeld","3.3.8","['hori', 'vert', 'vert', 'vert', 'hori', 'hori', 'hori', 'vert']","yes",109,"circles","yes",0,NA,2,"legacy",NA,1024,2,48000,-16,"experiment",4,"even","green","no",1,"circle",410480.9268,410575.7772,410575.8172,NA,417632.94,NA,NA,109348.4187,3877.67660000009,NA,109348.4406,573169.0639,575905.8043,NA,NA,NA,NA,3877.75469999997,418778.6724,NA,NA,573169.0783,419262.7779,573169.0151,"New experiment",19,"[0]","dist_absent",56,29,"yes","no",1680,NA,NA,NA,NA,"NR","NR","lp",NA,"Left",NA,NA,NA,NA,"practice",7,"NR","in"
"47",2000.46759999986,70354.3272999994,70354.3272999994,20,20,"n",6,"['6']","y","#000000","no",579679.6339,1,"neutral","psycho","psycho","psycho",0,"uniform",0,0,0,0,NA,0,0,NA,0,0,0,0,46,46,NA,NA,NA,NA,0,0,0,NA,46,0,46,73.2296414732588,"Wed Aug  4 11:46:48 2021","The main experiment item","yes","green","no","3","diamond",NA,"pinging_target_expectations 3.2.osexp","C:\Users\etp-cp-ping\Desktop\LocalPC-EXP",75,"no","mono","no",18,"no","white","no","yes",1050,NA,100,"psycho",46,0,46,"C:/Users/etp-cp-ping/Desktop/LocalPC-EXP/subject-4.csv","psycho",30,47,47,"Lentiform Loewenfeld","3.3.8","['vert', 'vert', 'hori', 'vert', 'hori', 'hori', 'hori', 'vert']","yes",109,"circles","yes",0,NA,2,"legacy",NA,1024,2,48000,-16,"experiment",4,"even","red","no",7,"circle",410480.9268,410575.7772,410575.8172,NA,417632.94,NA,NA,109348.4187,3877.67660000009,NA,109348.4406,575936.1517,579680.7654,NA,NA,NA,NA,3877.75469999997,418778.6724,NA,NA,575936.166,419262.7779,575936.1025,"New experiment",19,"[0]","dist_present",56,84,"yes","no",1680,NA,NA,NA,NA,"NR","NR","lp",NA,NA,NA,NA,NA,NA,"practice",1,"NR","in"
"48",1145.37269999983,71499.6999999992,71499.6999999992,21,21,"n",6,"['6']","y","#000000","no",582831.749,1,"neutral","psycho","psycho","psycho",0,"uniform",1,0,0,0,NA,0,0,NA,0,0,0,0,47,47,NA,NA,NA,NA,0,0,0,NA,47,0,47,73.2296414732588,"Wed Aug  4 11:46:48 2021","The main experiment item","yes","red","no","None","diamond",NA,"pinging_target_expectations 3.2.osexp","C:\Users\etp-cp-ping\Desktop\LocalPC-EXP",75,"no","mono","no",18,"no","white","no","yes",1050,NA,100,"psycho",47,0,47,"C:/Users/etp-cp-ping/Desktop/LocalPC-EXP/subject-4.csv","psycho",31,48,48,"Lentiform Loewenfeld","3.3.8","['vert', 'vert', 'vert', 'hori', 'hori', 'vert', 'hori', 'hori']","no",209,"None","yes",0,NA,2,"legacy",NA,1024,2,48000,-16,"experiment",4,"even","green","no",1,"circle",410480.9268,410575.7772,410575.8172,NA,417632.94,NA,NA,109348.4187,3877.67660000009,NA,109348.4406,579711.815,582833.948,NA,NA,NA,NA,3877.75469999997,418778.6724,NA,NA,579711.8295,419262.7779,579711.767,"New experiment",19,"[0]","dist_absent",56,29,"yes","no",1680,NA,NA,NA,NA,"NR","NR","lp",NA,"Left",NA,NA,NA,NA,"practice",7,"NR","in"
"49",1718.96190000011,73218.6618999993,73218.6618999993,22,22,"n",6,"['6']","y","#000000","no",586368.1662,1,"neutral","psycho","psycho","psycho",0,"uniform",1,0,0,0,NA,0,0,NA,0,0,0,0,48,48,NA,NA,NA,NA,0,0,0,NA,48,0,48,73.2296414732588,"Wed Aug  4 11:46:48 2021","The main experiment item","yes","green","no","6","circle",NA,"pinging_target_expectations 3.2.osexp","C:\Users\etp-cp-ping\Desktop\LocalPC-EXP",75,"no","mono","no",18,"no","white","no","yes",1050,NA,100,"psycho",48,0,48,"C:/Users/etp-cp-ping/Desktop/LocalPC-EXP/subject-4.csv","psycho",32,49,49,"Lentiform Loewenfeld","3.3.8","['vert', 'hori', 'hori', 'hori', 'vert', 'vert', 'hori', 'vert']","no",209,"None","yes",0,NA,2,"legacy",NA,1024,2,48000,-16,"experiment",4,"even","red","no",2,"diamond",410480.9268,410575.7772,410575.8172,NA,417632.94,NA,NA,109348.4187,3877.67660000009,NA,109348.4406,582864.3097,586369.8797,NA,NA,NA,NA,3877.75469999997,418778.6724,NA,NA,582864.3239,419262.7779,582864.2585,"New experiment",19,"[0]","dist_present",56,37,"yes","no",1680,NA,NA,NA,NA,"NR","NR","lp",NA,NA,NA,NA,NA,NA,"practice",1,"NR","in"
"50",2000.25810000044,75218.9199999998,75218.9199999998,22,22,"n",6,"['6']","y","#000000","no",590227.6086,1,"neutral","psycho","psycho","psycho",0,"uniform",0,0,0,0,NA,0,0,NA,0,0,0,0,49,49,NA,NA,NA,NA,0,0,0,NA,49,0,49,73.2296414732588,"Wed Aug  4 11:46:48 2021","The main experiment item","yes","green","no","6","circle",NA,"pinging_target_expectations 3.2.osexp","C:\Users\etp-cp-ping\Desktop\LocalPC-EXP",75,"no","mono","no",18,"no","white","no","yes",1050,NA,100,"psycho",49,0,49,"C:/Users/etp-cp-ping/Desktop/LocalPC-EXP/subject-4.csv","psycho",33,50,50,"Lentiform Loewenfeld","3.3.8","['vert', 'hori', 'hori', 'vert', 'hori', 'vert', 'hori', 'vert']","yes",109,"circles","yes",0,NA,2,"legacy",NA,1024,2,48000,-16,"experiment",4,"even","red","no",5,"diamond",410480.9268,410575.7772,410575.8172,NA,417632.94,NA,NA,109348.4187,3877.67660000009,NA,109348.4406,586400.4059,590228.7326,NA,NA,NA,NA,3877.75469999997,418778.6724,NA,NA,586400.4203,419262.7779,586400.3564,"New experiment",19,"[0]","dist_present",56,67,"yes","no",1680,NA,NA,NA,NA,"NR","R","lp",NA,NA,NA,NA,NA,NA,"practice",2,"NR","in"
"51",1319.96650000021,76538.8865,76538.8865,22,22,"n",6,"['6']","y","#000000","no",593375.6265,1,"neutral","psycho","psycho","psycho",0,"uniform",0,0,0,0,NA,0,0,NA,0,0,0,0,50,50,NA,NA,NA,NA,0,0,0,NA,50,0,50,73.2296414732588,"Wed Aug  4 11:46:48 2021","The main experiment item","yes","red","no","3","diamond",NA,"pinging_target_expectations 3.2.osexp","C:\Users\etp-cp-ping\Desktop\LocalPC-EXP",75,"no","mono","no",18,"no","white","no","yes",1050,NA,100,"psycho",50,0,50,"C:/Users/etp-cp-ping/Desktop/LocalPC-EXP/subject-4.csv","psycho",34,51,51,"Lentiform Loewenfeld","3.3.8","['vert', 'vert', 'hori', 'vert', 'hori', 'hori', 'hori', 'vert']","no",209,"None","yes",0,NA,2,"legacy",NA,1024,2,48000,-16,"experiment",4,"even","green","no",6,"circle",410480.9268,410575.7772,410575.8172,NA,417632.94,NA,NA,109348.4187,3877.67660000009,NA,109348.4406,590259.1162,593377.8759,NA,NA,NA,NA,3877.75469999997,418778.6724,NA,NA,590259.1308,419262.7779,590259.0655,"New experiment",19,"[0]","dist_present",56,74,"yes","no",1680,NA,NA,NA,NA,"NR","NR","lp",NA,NA,NA,NA,NA,NA,"practice",5,"NR","in"
"52",1318.2122000003,77857.0987000003,77857.0987000003,22,22,"n",6,"['6']","y","#000000","no",596783.628,1,"neutral","psycho","psycho","psycho",0,"uniform",0,0,0,0,NA,0,0,NA,0,0,0,0,51,51,NA,NA,NA,NA,0,0,0,NA,51,0,51,73.2296414732588,"Wed Aug  4 11:46:48 2021","The main experiment item","yes","red","no","4","diamond",NA,"pinging_target_expectations 3.2.osexp","C:\Users\etp-cp-ping\Desktop\LocalPC-EXP",75,"no","mono","no",18,"no","white","no","yes",1050,NA,100,"psycho",51,0,51,"C:/Users/etp-cp-ping/Desktop/LocalPC-EXP/subject-4.csv","psycho",35,52,52,"Lentiform Loewenfeld","3.3.8","['vert', 'hori', 'hori', 'vert', 'hori', 'vert', 'hori', 'vert']","yes",109,"diamond","yes",0,NA,2,"legacy",NA,1024,2,48000,-16,"experiment",4,"even","green","no",0,"circle",410480.9268,410575.7772,410575.8172,NA,417632.94,NA,NA,109348.4187,3877.67660000009,NA,109348.4406,593408.1677,596785.8115,NA,NA,NA,NA,3877.75469999997,418778.6724,NA,NA,593408.1824,419262.7779,593408.1188,"New experiment",19,"[0]","dist_present",56,15,"yes","no",1680,NA,NA,NA,NA,"NR","NR","lp",NA,NA,NA,NA,NA,NA,"practice",6,"NR","in"
"53",1215.11379999993,79072.2125000002,79072.2125000002,23,23,"n",6,"['6']","y","#000000","no",600080.5493,1,"neutral","psycho","psycho","psycho",0,"uniform",1,0,0,0,NA,0,0,NA,0,0,0,0,52,52,NA,NA,NA,NA,0,0,0,NA,52,0,52,73.2296414732588,"Wed Aug  4 11:46:48 2021","The main experiment item","yes","red","no","2","diamond",NA,"pinging_target_expectations 3.2.osexp","C:\Users\etp-cp-ping\Desktop\LocalPC-EXP",75,"no","mono","no",18,"no","white","no","yes",1050,NA,100,"psycho",52,0,52,"C:/Users/etp-cp-ping/Desktop/LocalPC-EXP/subject-4.csv","psycho",36,53,53,"Lentiform Loewenfeld","3.3.8","['hori', 'vert', 'vert', 'vert', 'hori', 'vert', 'hori', 'hori']","no",209,"None","yes",0,NA,2,"legacy",NA,1024,2,48000,-16,"experiment",4,"even","green","no",4,"circle",410480.9268,410575.7772,410575.8172,NA,417632.94,NA,NA,109348.4187,3877.67660000009,NA,109348.4406,596816.1461,600081.8928,NA,NA,NA,NA,3877.75469999997,418778.6724,NA,NA,596816.1604,419262.7779,596816.0969,"New experiment",19,"[0]","dist_present",56,53,"yes","no",1680,NA,NA,NA,NA,"NR","NR","lp","Left",NA,"Left",NA,NA,NA,"practice",0,"NR","in"
"54",1055.79859999986,80128.0111000001,80128.0111000001,24,24,"n",6,"['6']","y","#000000","no",602992.2305,1,"neutral","psycho","psycho","psycho",0,"uniform",1,0,0,0,NA,0,0,NA,0,0,0,0,53,53,NA,NA,NA,NA,0,0,0,NA,53,0,53,73.2296414732588,"Wed Aug  4 11:46:48 2021","The main experiment item","yes","red","no","6","diamond",NA,"pinging_target_expectations 3.2.osexp","C:\Users\etp-cp-ping\Desktop\LocalPC-EXP",75,"no","mono","no",18,"no","white","no","yes",1050,NA,100,"psycho",53,0,53,"C:/Users/etp-cp-ping/Desktop/LocalPC-EXP/subject-4.csv","psycho",37,54,54,"Lentiform Loewenfeld","3.3.8","['hori', 'hori', 'vert', 'vert', 'hori', 'vert', 'vert', 'hori']","yes",109,"circles","yes",0,NA,2,"legacy",NA,1024,2,48000,-16,"experiment",4,"even","green","no",0,"circle",410480.9268,410575.7772,410575.8172,NA,417632.94,NA,NA,109348.4187,3877.67660000009,NA,109348.4406,600112.4604,602993.7919,NA,NA,NA,NA,3877.75469999997,418778.6724,NA,NA,600112.4748,419262.7779,600112.4121,"New experiment",19,"[0]","dist_present",56,17,"yes","no",1680,NA,NA,NA,NA,"NR","NR","lp","Right",NA,"Right",NA,NA,NA,"practice",4,"NR","in"
"55",708.961899999878,80836.9729999999,80836.9729999999,25,25,"n",6,"['6']","y","#000000","no",605695.9156,1,"neutral","psycho","psycho","psycho",0,"uniform",1,0,0,0,NA,0,0,NA,0,0,0,0,54,54,NA,NA,NA,NA,0,0,0,NA,54,0,54,73.2296414732588,"Wed Aug  4 11:46:48 2021","The main experiment item","yes","green","no","7","circle",NA,"pinging_target_expectations 3.2.osexp","C:\Users\etp-cp-ping\Desktop\LocalPC-EXP",75,"no","mono","no",18,"no","white","no","yes",1050,NA,100,"psycho",54,0,54,"C:/Users/etp-cp-ping/Desktop/LocalPC-EXP/subject-4.csv","psycho",38,55,55,"Lentiform Loewenfeld","3.3.8","['hori', 'hori', 'vert', 'hori', 'vert', 'hori', 'vert', 'vert']","yes",109,"diamond","yes",0,NA,2,"legacy",NA,1024,2,48000,-16,"experiment",4,"even","red","no",2,"diamond",410480.9268,410575.7772,410575.8172,NA,417632.94,NA,NA,109348.4187,3877.67660000009,NA,109348.4406,603024.2535,605697.7757,NA,NA,NA,NA,3877.75469999997,418778.6724,NA,NA,603024.2678,419262.7779,603024.2048,"New experiment",19,"[0]","dist_present",56,38,"yes","no",1680,NA,NA,NA,NA,"NR","NR","lp",NA,NA,NA,NA,NA,NA,"practice",0,"NR","in"
"56",1406.51269999985,82243.4856999998,82243.4856999998,26,26,"n",6,"['6']","y","#000000","no",608976.4092,1,"neutral","psycho","psycho","psycho",0,"uniform",1,0,0,0,NA,0,0,NA,0,0,0,0,55,55,NA,NA,NA,NA,0,0,0,NA,55,0,55,73.2296414732588,"Wed Aug  4 11:46:48 2021","The main experiment item","yes","red","no","None","circle",NA,"pinging_target_expectations 3.2.osexp","C:\Users\etp-cp-ping\Desktop\LocalPC-EXP",75,"no","mono","no",18,"no","white","no","yes",1050,NA,100,"psycho",55,0,55,"C:/Users/etp-cp-ping/Desktop/LocalPC-EXP/subject-4.csv","psycho",39,56,56,"Lentiform Loewenfeld","3.3.8","['vert', 'hori', 'vert', 'hori', 'hori', 'hori', 'vert', 'vert']","yes",109,"diamond","yes",0,NA,2,"legacy",NA,1024,2,48000,-16,"experiment",4,"even","green","no",1,"diamond",410480.9268,410575.7772,410575.8172,NA,417632.94,NA,NA,109348.4187,3877.67660000009,NA,109348.4406,605728.218,608977.8692,NA,NA,NA,NA,3877.75469999997,418778.6724,NA,NA,605728.2325,419262.7779,605728.1686,"New experiment",19,"[0]","dist_absent",56,29,"yes","no",1680,NA,NA,NA,NA,"NR","NR","lp",NA,"Left",NA,NA,NA,NA,"practice",2,"NR","in"
"57",1489.79609999969,1489.79609999969,83733.2817999995,1,27,"n",6,"['6']","y","#000000","no",736866.7224,2,"bias","psycho","psycho","psycho",0,"uniform",1,0,1,1,NA,1,0,NA,0,0,1,0,56,56,NA,NA,NA,NA,0,1,1,NA,56,1,56,73.2296414732588,"Wed Aug  4 11:46:48 2021","The main experiment item","yes","red","no","2","circle",NA,"pinging_target_expectations 3.2.osexp","C:\Users\etp-cp-ping\Desktop\LocalPC-EXP",75,"no","mono","no",18,"no","white","no","yes",1050,NA,0,"psycho",0,1,0,"C:/Users/etp-cp-ping/Desktop/LocalPC-EXP/subject-4.csv","psycho",2,57,1,"Lentiform Loewenfeld","3.3.8","['hori', 'vert', 'hori', 'vert', 'hori', 'hori', 'vert', 'vert']","no",200,"None","no",0,NA,2,"legacy",NA,1024,2,48000,-16,"experiment",4,"even","green","no",4,"diamond",410480.9268,678043.9868,678044.0339,NA,680725.6734,NA,NA,109348.4187,3877.67660000009,609521.295,109348.4406,735494.1143,738737.6782,NA,NA,NA,NA,3877.75469999997,735001.4948,609007.9571,NA,735494.1298,735489.8815,735494.068,"New experiment",19,"[0]","dist_present",56,53,"yes","yes",1680,-59.2176046497846,40.0212117812196,"more away","True","NR","NR","lp","Left",NA,"Left",NA,4,-2,"first",999,"NR","in"
"58",1240.32200000004,2730.11809999973,84973.6037999995,2,28,"n",6,"['6']","y","#000000","no",736866.7224,2,"bias","psycho","psycho","psycho",0,"uniform",1,0,1,1,NA,1,0,NA,0,0,1,0,57,57,NA,NA,NA,NA,0,1,1,NA,57,1,57,73.2296414732588,"Wed Aug  4 11:46:48 2021","The main experiment item","yes","green","no","7","diamond",NA,"pinging_target_expectations 3.2.osexp","C:\Users\etp-cp-ping\Desktop\LocalPC-EXP",75,"no","mono","no",18,"no","white","no","yes",1050,NA,0,"psycho",1,1,1,"C:/Users/etp-cp-ping/Desktop/LocalPC-EXP/subject-4.csv","psycho",2,58,2,"Lentiform Loewenfeld","3.3.8","['hori', 'hori', 'vert', 'hori', 'vert', 'vert', 'vert', 'hori']","yes",100,"circles","no",0,NA,2,"legacy",NA,1024,2,48000,-16,"experiment",4,"even","red","yes",0,"circle",410480.9268,678043.9868,678044.0339,NA,680725.6734,NA,NA,109348.4187,3877.67660000009,609521.295,109348.4406,738769.9917,741905.7164,NA,NA,NA,NA,3877.75469999997,735001.4948,609007.9571,NA,738770.0061,735489.8815,738769.9448,"New experiment",19,"[0]","dist_present",56,18,"yes","yes",1680,-36.6954140023026,-14.593640736766,"more toward","False","NR","NR","lp","Right",NA,NA,NA,0,1,"first",4,"NR","ex"
"59",690.533899999922,3420.65199999965,85664.1376999994,3,29,"n",6,"['6']","y","#000000","no",736866.7224,2,"bias","psycho","psycho","psycho",0,"uniform",1,0,1,1,NA,1,0,NA,0,0,1,0,58,58,NA,NA,NA,NA,0,1,1,NA,58,1,58,73.2296414732588,"Wed Aug  4 11:46:48 2021","The main experiment item","yes","green","no","None","circle",NA,"pinging_target_expectations 3.2.osexp","C:\Users\etp-cp-ping\Desktop\LocalPC-EXP",75,"no","mono","no",18,"no","white","no","yes",1050,NA,0,"psycho",2,1,2,"C:/Users/etp-cp-ping/Desktop/LocalPC-EXP/subject-4.csv","psycho",2,59,3,"Lentiform Loewenfeld","3.3.8","['hori', 'vert', 'hori', 'vert', 'hori', 'vert', 'vert', 'hori']","no",200,"None","no",0,NA,2,"legacy",NA,1024,2,48000,-16,"experiment",4,"even","red","yes",0,"diamond",410480.9268,678043.9868,678044.0339,NA,680725.6734,NA,NA,109348.4187,3877.67660000009,609521.295,109348.4406,741936.3396,744673.6284,NA,NA,NA,NA,3877.75469999997,735001.4948,609007.9571,NA,741936.354,735489.8815,741936.2892,"New experiment",19,"[0]","dist_absent",56,19,"yes","yes",1680,-27.6459140023026,-11.681390736766,"more toward","False","R","NR","hp",NA,NA,NA,NA,0,NA,"first",0,"NR","ex"
"60",1197.53329999966,4618.18529999931,86861.6709999991,3,29,"n",6,"['6']","y","#000000","no",736866.7224,2,"bias","psycho","psycho","psycho",0,"uniform",0,0,1,1,NA,1,0,NA,0,0,1,0,59,59,NA,NA,NA,NA,0,1,1,NA,59,1,59,73.2296414732588,"Wed Aug  4 11:46:48 2021","The main experiment item","yes","red","no","1","circle",NA,"pinging_target_expectations 3.2.osexp","C:\Users\etp-cp-ping\Desktop\LocalPC-EXP",75,"no","mono","no",18,"no","white","no","yes",1050,NA,0,"psycho",3,1,3,"C:/Users/etp-cp-ping/Desktop/LocalPC-EXP/subject-4.csv","psycho",2,60,4,"Lentiform Loewenfeld","3.3.8","['vert', 'hori', 'vert', 'hori', 'hori', 'vert', 'hori', 'vert']","yes",100,"diamond","no",0,NA,2,"legacy",NA,1024,2,48000,-16,"experiment",4,"even","green","yes",0,"diamond",410480.9268,678043.9868,678044.0339,NA,680725.6734,NA,NA,109348.4187,3877.67660000009,609521.295,109348.4406,744704.4707,747905.676,NA,NA,NA,NA,3877.75469999997,735001.4948,609007.9571,NA,744704.4852,735489.8815,744704.4221,"New experiment",19,"[0]","dist_present",56,12,"yes","yes",1680,-27.8924140023026,-10.063640736766,"more toward","False","R","NR","hp","Left",NA,NA,NA,0,-1,"first",0,"R","ex"
"61",1845.09230000002,6463.27759999933,88706.7632999991,4,30,"n",6,"['6']","y","#000000","no",736866.7224,2,"bias","psycho","psycho","psycho",0,"uniform",1,0,1,1,NA,1,0,NA,0,0,1,0,60,60,NA,NA,NA,NA,0,1,1,NA,60,1,60,73.2296414732588,"Wed Aug  4 11:46:48 2021","The main experiment item","yes","red","no","7","circle",NA,"pinging_target_expectations 3.2.osexp","C:\Users\etp-cp-ping\Desktop\LocalPC-EXP",75,"no","mono","no",18,"no","white","no","yes",1050,NA,0,"psycho",4,1,4,"C:/Users/etp-cp-ping/Desktop/LocalPC-EXP/subject-4.csv","psycho",2,61,5,"Lentiform Loewenfeld","3.3.8","['vert', 'hori', 'hori', 'hori', 'vert', 'vert', 'vert', 'hori']","yes",100,"circles","no",0,NA,2,"legacy",NA,1024,2,48000,-16,"experiment",4,"even","green","no",1,"diamond",410480.9268,678043.9868,678044.0339,NA,680725.6734,NA,NA,109348.4187,3877.67660000009,609521.295,109348.4406,747936.3086,751841.694,NA,NA,NA,NA,3877.75469999997,735001.4948,609007.9571,NA,747936.3228,735489.8815,747936.2598,"New experiment",19,"[0]","dist_present",56,28,"yes","yes",1680,-16.1359140023026,-20.644890736766,"more toward","False","NR","NR","hp",NA,NA,NA,NA,-1,1,"first",0,"R","in"
"62",837.932200000039,7301.20979999937,89544.6954999992,5,31,"n",6,"['6']","y","#000000","no",752388.9704,2,"bias","psycho","psycho","psycho",0,"uniform",1,0,1,1,NA,1,0,NA,0,0,1,0,61,61,NA,NA,NA,NA,0,1,1,NA,61,1,61,73.2296414732588,"Wed Aug  4 11:46:48 2021","The main experiment item","yes","red","yes","0","circle",NA,"pinging_target_expectations 3.2.osexp","C:\Users\etp-cp-ping\Desktop\LocalPC-EXP",75,"no","mono","no",18,"no","white","no","yes",1050,NA,0,"psycho",5,1,5,"C:/Users/etp-cp-ping/Desktop/LocalPC-EXP/subject-4.csv","psycho",3,62,6,"Lentiform Loewenfeld","3.3.8","['vert', 'vert', 'hori', 'hori', 'vert', 'hori', 'vert', 'hori']","yes",100,"circles","no",0,NA,2,"legacy",NA,1024,2,48000,-16,"experiment",4,"even","green","no",7,"diamond",410480.9268,678043.9868,678044.0339,NA,680725.6734,NA,NA,109348.4187,3877.67660000009,609521.295,109348.4406,751872.2707,754753.6963,NA,NA,NA,NA,3877.75469999997,735001.4948,609007.9571,NA,751872.2855,735489.8815,751872.222,"New experiment",19,"[0]","dist_present",56,81,"yes","no",1680,-24.9031640023026,-19.216390736766,"more toward","False","NR","NR","lp",NA,"Right",NA,NA,1,0,"first",1,"NR","in"
"63",1280.55450000009,8581.76429999946,90825.2499999992,6,32,"n",6,"['6']","y","#000000","no",752388.9704,2,"bias","psycho","psycho","psycho",0,"uniform",1,0,1,1,NA,1,0,NA,0,0,1,0,62,62,NA,NA,NA,NA,0,1,1,NA,62,1,62,73.2296414732588,"Wed Aug  4 11:46:48 2021","The main experiment item","yes","green","yes","0","circle",NA,"pinging_target_expectations 3.2.osexp","C:\Users\etp-cp-ping\Desktop\LocalPC-EXP",75,"no","mono","no",18,"no","white","no","yes",1050,NA,0,"psycho",6,1,6,"C:/Users/etp-cp-ping/Desktop/LocalPC-EXP/subject-4.csv","psycho",3,63,7,"Lentiform Loewenfeld","3.3.8","['hori', 'vert', 'vert', 'hori', 'vert', 'vert', 'hori', 'hori']","yes",100,"circles","no",0,NA,2,"legacy",NA,1024,2,48000,-16,"experiment",4,"even","red","no",5,"diamond",410480.9268,678043.9868,678044.0339,NA,680725.6734,NA,NA,109348.4187,3877.67660000009,609521.295,109348.4406,754784.3936,757857.618,NA,NA,NA,NA,3877.75469999997,735001.4948,609007.9571,NA,754784.4077,735489.8815,754784.344,"New experiment",19,"[0]","dist_present",56,61,"yes","yes",1680,-31.0599140023026,-18.918140736766,"more toward","False","NR","R","lp",NA,"Right",NA,NA,3,0,"first",7,"NR","in"
"64",1309.99740000011,9891.76169999957,92135.2473999994,6,32,"n",6,"['6']","y","#000000","no",752388.9704,2,"bias","psycho","psycho","psycho",0,"uniform",0,0,1,1,NA,1,0,NA,0,0,1,0,63,63,NA,NA,NA,NA,0,1,1,NA,63,1,63,73.2296414732588,"Wed Aug  4 11:46:48 2021","The main experiment item","yes","green","no","4","diamond",NA,"pinging_target_expectations 3.2.osexp","C:\Users\etp-cp-ping\Desktop\LocalPC-EXP",75,"no","mono","no",18,"no","white","no","yes",1050,NA,0,"psycho",7,1,7,"C:/Users/etp-cp-ping/Desktop/LocalPC-EXP/subject-4.csv","psycho",3,64,8,"Lentiform Loewenfeld","3.3.8","['vert', 'hori', 'hori', 'vert', 'hori', 'vert', 'vert', 'hori']","no",200,"None","no",0,NA,2,"legacy",NA,1024,2,48000,-16,"experiment",4,"even","red","no",3,"circle",410480.9268,678043.9868,678044.0339,NA,680725.6734,NA,NA,109348.4187,3877.67660000009,609521.295,109348.4406,757888.2828,761137.7314,NA,NA,NA,NA,3877.75469999997,735001.4948,609007.9571,NA,757888.2969,735489.8815,757888.2333,"New experiment",19,"[0]","dist_present",56,45,"yes","yes",1680,-26.0536640023026,-14.021640736766,"more toward","False","NR","NR","lp",NA,"Left",NA,NA,-3,4,"first",5,"NR","in"
"65",1390.32219999994,11282.0838999995,93525.5695999993,7,33,"n",6,"['6']","y","#000000","no",752388.9704,2,"bias","psycho","psycho","psycho",0,"uniform",1,0,1,1,NA,1,0,NA,0,0,1,0,64,64,NA,NA,NA,NA,0,1,1,NA,64,1,64,73.2296414732588,"Wed Aug  4 11:46:48 2021","The main experiment item","yes","red","no","7","diamond",NA,"pinging_target_expectations 3.2.osexp","C:\Users\etp-cp-ping\Desktop\LocalPC-EXP",75,"no","mono","no",18,"no","white","no","yes",1050,NA,0,"psycho",8,1,8,"C:/Users/etp-cp-ping/Desktop/LocalPC-EXP/subject-4.csv","psycho",3,65,9,"Lentiform Loewenfeld","3.3.8","['vert', 'vert', 'vert', 'hori', 'hori', 'vert', 'hori', 'hori']","no",200,"None","no",0,NA,2,"legacy",NA,1024,2,48000,-16,"experiment",4,"even","green","yes",0,"circle",410480.9268,678043.9868,678044.0339,NA,680725.6734,NA,NA,109348.4187,3877.67660000009,609521.295,109348.4406,761168.3813,764625.6931,NA,NA,NA,NA,3877.75469999997,735001.4948,609007.9571,NA,761168.3961,735489.8815,761168.3289,"New experiment",19,"[0]","dist_present",56,18,"yes","yes",1680,-23.6044140023026,-31.374390736766,"more toward","False","NR","NR","lp","Right",NA,NA,NA,0,1,"first",3,"NR","ex"
"66",2000.08560000011,13282.1694999996,95525.6551999994,7,33,"n",6,"['6']","y","#000000","no",752388.9704,2,"bias","psycho","psycho","psycho",0,"uniform",0,0,1,1,NA,1,0,NA,0,0,1,0,65,65,NA,NA,NA,NA,0,1,1,NA,65,1,65,73.2296414732588,"Wed Aug  4 11:46:48 2021","The main experiment item","yes","green","no","None","circle",NA,"pinging_target_expectations 3.2.osexp","C:\Users\etp-cp-ping\Desktop\LocalPC-EXP",75,"no","mono","no",18,"no","white","no","yes",1050,NA,0,"psycho",9,1,9,"C:/Users/etp-cp-ping/Desktop/LocalPC-EXP/subject-4.csv","psycho",3,66,10,"Lentiform Loewenfeld","3.3.8","['hori', 'vert', 'hori', 'vert', 'vert', 'vert', 'hori', 'hori']","yes",100,"circles","no",0,NA,2,"legacy",NA,1024,2,48000,-16,"experiment",4,"even","red","no",7,"diamond",410480.9268,678043.9868,678044.0339,NA,680725.6734,NA,NA,109348.4187,3877.67660000009,609521.295,109348.4406,764656.1891,768655.177,NA,NA,NA,NA,3877.75469999997,735001.4948,609007.9571,NA,764656.2036,735489.8815,764656.1391,"New experiment",19,"[0]","dist_absent",56,89,"yes","yes",1680,-19.4591640023026,-23.978640736766,"more toward","False","NR","NR","hp",NA,"Right",NA,NA,1,NA,"first",0,"NR","in"
"67",1002.36739999987,14284.5368999995,96528.0225999993,7,33,"n",6,"['6']","y","#000000","no",752388.9704,2,"bias","psycho","psycho","psycho",0,"uniform",0,0,1,1,NA,1,0,NA,0,0,1,0,66,66,NA,NA,NA,NA,0,1,1,NA,66,1,66,73.2296414732588,"Wed Aug  4 11:46:48 2021","The main experiment item","yes","green","no","7","circle",NA,"pinging_target_expectations 3.2.osexp","C:\Users\etp-cp-ping\Desktop\LocalPC-EXP",75,"no","mono","no",18,"no","white","no","yes",1050,NA,0,"psycho",10,1,10,"C:/Users/etp-cp-ping/Desktop/LocalPC-EXP/subject-4.csv","psycho",3,67,11,"Lentiform Loewenfeld","3.3.8","['hori', 'hori', 'hori', 'vert', 'vert', 'vert', 'vert', 'hori']","yes",100,"circles","no",0,NA,2,"legacy",NA,1024,2,48000,-16,"experiment",4,"even","red","yes",0,"diamond",410480.9268,678043.9868,678044.0339,NA,680725.6734,NA,NA,109348.4187,3877.67660000009,609521.295,109348.4406,768685.5379,771745.6297,NA,NA,NA,NA,3877.75469999997,735001.4948,609007.9571,NA,768685.5523,735489.8815,768685.4886,"New experiment",19,"[0]","dist_present",56,18,"yes","yes",1680,-16.5454140023026,-10.191640736766,"more toward","False","NR","NR","lp","Right",NA,NA,NA,0,1,"first",7,"NR","ex"
"68",647.077000000165,14931.6138999996,97175.0995999994,7,33,"n",6,"['6']","y","#000000","no",752388.9704,2,"bias","psycho","psycho","psycho",0,"uniform",0,0,1,1,NA,1,0,NA,0,0,1,0,67,67,NA,NA,NA,NA,0,1,1,NA,67,1,67,73.2296414732588,"Wed Aug  4 11:46:48 2021","The main experiment item","yes","green","no","4","circle",NA,"pinging_target_expectations 3.2.osexp","C:\Users\etp-cp-ping\Desktop\LocalPC-EXP",75,"no","mono","no",18,"no","white","no","yes",1050,NA,0,"psycho",11,1,11,"C:/Users/etp-cp-ping/Desktop/LocalPC-EXP/subject-4.csv","psycho",3,68,12,"Lentiform Loewenfeld","3.3.8","['hori', 'hori', 'vert', 'vert', 'vert', 'vert', 'hori', 'hori']","no",200,"None","no",0,NA,2,"legacy",NA,1024,2,48000,-16,"experiment",4,"even","red","no",6,"diamond",410480.9268,678043.9868,678044.0339,NA,680725.6734,NA,NA,109348.4187,3877.67660000009,609521.295,109348.4406,771779.4467,774289.6547,NA,NA,NA,NA,3877.75469999997,735001.4948,609007.9571,NA,771779.4609,735489.8815,771779.3962,"New experiment",19,"[0]","dist_present",56,75,"yes","yes",1680,-28.2066640023026,-9.45914073676599,"more toward","False","NR","NR","hp",NA,"Right",NA,"Right",2,4,"first",0,"NR","in"
"69",1605.71059999987,16537.3244999995,98780.8101999993,7,33,"n",6,"['6']","y","#000000","no",752388.9704,2,"bias","psycho","psycho","psycho",0,"uniform",0,0,1,1,NA,1,0,NA,0,0,1,0,68,68,NA,NA,NA,NA,0,1,1,NA,68,1,68,73.2296414732588,"Wed Aug  4 11:46:48 2021","The main experiment item","yes","green","no","5","diamond",NA,"pinging_target_expectations 3.2.osexp","C:\Users\etp-cp-ping\Desktop\LocalPC-EXP",75,"no","mono","no",18,"no","white","no","yes",1050,NA,0,"psycho",12,1,12,"C:/Users/etp-cp-ping/Desktop/LocalPC-EXP/subject-4.csv","psycho",3,69,13,"Lentiform Loewenfeld","3.3.8","['vert', 'hori', 'hori', 'hori', 'vert', 'vert', 'hori', 'vert']","yes",100,"circles","no",0,NA,2,"legacy",NA,1024,2,48000,-16,"experiment",4,"even","red","no",4,"circle",410480.9268,678043.9868,678044.0339,NA,680725.6734,NA,NA,109348.4187,3877.67660000009,609521.295,109348.4406,774320.0844,777777.6539,NA,NA,NA,NA,3877.75469999997,735001.4948,609007.9571,NA,774320.0986,735489.8815,774320.0344,"New experiment",19,"[0]","dist_present",56,56,"yes","yes",1680,-28.9306640023026,-20.516640736766,"more toward","False","NR","NR","lp","Right",NA,NA,NA,4,3,"first",6,"NR","in"
"70",1380.0780000001,17917.4024999996,100160.888199999,7,33,"n",6,"['6']","y","#000000","no",752388.9704,2,"bias","psycho","psycho","psycho",0,"uniform",0,0,1,1,NA,1,0,NA,0,0,1,0,69,69,NA,NA,NA,NA,0,1,1,NA,69,1,69,73.2296414732588,"Wed Aug  4 11:46:48 2021","The main experiment item","yes","red","no","6","diamond",NA,"pinging_target_expectations 3.2.osexp","C:\Users\etp-cp-ping\Desktop\LocalPC-EXP",75,"no","mono","no",18,"no","white","no","yes",1050,NA,0,"psycho",13,1,13,"C:/Users/etp-cp-ping/Desktop/LocalPC-EXP/subject-4.csv","psycho",3,70,14,"Lentiform Loewenfeld","3.3.8","['vert', 'hori', 'hori', 'hori', 'vert', 'hori', 'vert', 'vert']","yes",100,"diamond","no",0,NA,2,"legacy",NA,1024,2,48000,-16,"experiment",4,"even","green","yes",0,"circle",410480.9268,678043.9868,678044.0339,NA,680725.6734,NA,NA,109348.4187,3877.67660000009,609521.295,109348.4406,777808.4488,780865.6989,NA,NA,NA,NA,3877.75469999997,735001.4948,609007.9571,NA,777808.4631,735489.8815,777808.3994,"New experiment",19,"[0]","dist_present",56,17,"yes","yes",1680,-8.44991400230262,-31.024640736766,"more toward","False","NR","NR","lp","Right",NA,"Right",NA,0,2,"first",4,"NR","ex"
"71",1999.99170000001,19917.3941999996,102160.879899999,7,33,"n",6,"['6']","y","#000000","no",781327.3953,2,"bias","psycho","psycho","psycho",0,"uniform",0,0,1,1,NA,1,0,NA,0,0,1,0,70,70,NA,NA,NA,NA,0,1,1,NA,70,1,70,73.2296414732588,"Wed Aug  4 11:46:48 2021","The main experiment item","yes","red","yes","0","circle",NA,"pinging_target_expectations 3.2.osexp","C:\Users\etp-cp-ping\Desktop\LocalPC-EXP",75,"no","mono","no",18,"no","white","no","yes",1050,NA,0,"psycho",14,1,14,"C:/Users/etp-cp-ping/Desktop/LocalPC-EXP/subject-4.csv","psycho",4,71,15,"Lentiform Loewenfeld","3.3.8","['hori', 'vert', 'hori', 'hori', 'vert', 'vert', 'hori', 'vert']","no",200,"None","no",0,NA,2,"legacy",NA,1024,2,48000,-16,"experiment",4,"even","green","no",3,"diamond",410480.9268,678043.9868,678044.0339,NA,680725.6734,NA,NA,109348.4187,3877.67660000009,609521.295,109348.4406,780896.3631,784600.4922,NA,NA,NA,NA,3877.75469999997,735001.4948,609007.9571,NA,780896.3775,735489.8815,780896.3135,"New experiment",19,"[0]","dist_present",56,41,"yes","yes",1680,-21.2921640023026,-21.358140736766,"more toward","False","NR","NR","hp",NA,"Left",NA,NA,-3,0,"first",0,"NR","in"
"72",767.293599999859,20684.6877999995,102928.173499999,8,34,"n",6,"['6']","y","#000000","no",781327.3953,2,"bias","psycho","psycho","psycho",0,"uniform",1,0,1,1,NA,1,0,NA,0,0,1,0,71,71,NA,NA,NA,NA,0,1,1,NA,71,1,71,73.2296414732588,"Wed Aug  4 11:46:48 2021","The main experiment item","yes","red","no","3","diamond",NA,"pinging_target_expectations 3.2.osexp","C:\Users\etp-cp-ping\Desktop\LocalPC-EXP",75,"no","mono","no",18,"no","white","no","yes",1050,NA,0,"psycho",15,1,15,"C:/Users/etp-cp-ping/Desktop/LocalPC-EXP/subject-4.csv","psycho",4,72,16,"Lentiform Loewenfeld","3.3.8","['vert', 'hori', 'hori', 'vert', 'vert', 'hori', 'hori', 'vert']","yes",100,"circles","no",0,NA,2,"legacy",NA,1024,2,48000,-16,"experiment",4,"even","green","yes",0,"circle",410480.9268,678043.9868,678044.0339,NA,680725.6734,NA,NA,109348.4187,3877.67660000009,609521.295,109348.4406,784630.8222,787233.6486,NA,NA,NA,NA,3877.75469999997,735001.4948,609007.9571,NA,784630.8367,735489.8815,784630.7733,"New experiment",19,"[0]","dist_present",56,14,"yes","yes",1680,-22.5669140023026,-2.90889073676599,"more away","False","NR","NR","lp","Left",NA,NA,NA,0,-3,"first",3,"NR","ex"
"73",907.392799999798,21592.0805999993,103835.566299999,9,35,"n",6,"['6']","y","#000000","no",781327.3953,2,"bias","psycho","psycho","psycho",0,"uniform",1,0,1,1,NA,1,0,NA,0,0,1,0,72,72,NA,NA,NA,NA,0,1,1,NA,72,1,72,73.2296414732588,"Wed Aug  4 11:46:48 2021","The main experiment item","yes","green","no","None","circle",NA,"pinging_target_expectations 3.2.osexp","C:\Users\etp-cp-ping\Desktop\LocalPC-EXP",75,"no","mono","no",18,"no","white","no","yes",1050,NA,0,"psycho",16,1,16,"C:/Users/etp-cp-ping/Desktop/LocalPC-EXP/subject-4.csv","psycho",4,73,17,"Lentiform Loewenfeld","3.3.8","['hori', 'vert', 'hori', 'hori', 'vert', 'hori', 'vert', 'vert']","yes",100,"circles","no",0,NA,2,"legacy",NA,1024,2,48000,-16,"experiment",4,"even","red","no",6,"diamond",410480.9268,678043.9868,678044.0339,NA,680725.6734,NA,NA,109348.4187,3877.67660000009,609521.295,109348.4406,787264.5059,790081.6335,NA,NA,NA,NA,3877.75469999997,735001.4948,609007.9571,NA,787264.5201,735489.8815,787264.4569,"New experiment",19,"[0, 73.30824071507259, 78.96485184656008, 87.18645583492304, 96.48401363799344, 97.96940968677721, 97.06738799669175, 93.00416523456224, 87.47007641232926, 84.90393413868912, 83.85524309448002, 84.15143549981951, 84.24345857394862, 84.11516043404035, 84.67653567169931, 84.7642730594971, 84.86812178729933, 85.13381209551969, 84.72604065653474, 84.22376182327771, 84.423717763993, 84.41714377185716, 83.42166484217547, 82.95428890571095, 83.05064805046472, 84.33704963949522, 84.42614534938735, 83.52897732949378, 83.92886363100224, 84.24014440106144, 83.24711384120727, 82.58292856475956, 82.89178589550389, 82.97815298059788, 83.74683262725793, 84.0535543567314, 83.88610052522661, 83.09157713288563, 83.59102936577754, 83.8103927832155, 84.9989643778893, 85.18037294505899, 85.37592015141016, 85.28922716561897, 86.82195512709092, 86.78084753013229, 86.70098204799375, 86.84988121855163, 86.02850869963268, 86.57078028988765, 87.12069696601917, 87.34173077384378, 87.66986781475632, 87.98650170579046, 88.27345001493828, 88.26552169072974, 88.44124819519998, 88.34125825545246, 88.85408083292971, 88.67719979882597, 88.72455008944799, 88.71417966609803, 90.02279991421771, 89.6644622524265, 89.58493283153302, 89.40345471425614, 88.98552989813115, 89.67226689015921, 89.4646552066859, 89.96057085791962, 90.6754965054212, 87.28718301868082, 78.79658693000066]","dist_absent",56,79,"yes","yes",1680,-42.7409140023026,-8.50439073676599,"more away","False","NR","NR","hp",NA,"Right",NA,"Right",2,NA,"first",0,"NR","in"
"74",1616.18670000008,23208.2672999994,105451.752999999,10,36,"n",6,"['6']","y","#000000","no",781327.3953,2,"bias","psycho","psycho","psycho",0,"uniform",1,0,1,1,NA,1,0,NA,0,0,1,0,73,73,NA,NA,NA,NA,0,1,1,NA,73,1,73,73.2296414732588,"Wed Aug  4 11:46:48 2021","The main experiment item","yes","green","no","3","diamond",NA,"pinging_target_expectations 3.2.osexp","C:\Users\etp-cp-ping\Desktop\LocalPC-EXP",75,"no","mono","no",18,"no","white","no","yes",1050,NA,0,"psycho",17,1,17,"C:/Users/etp-cp-ping/Desktop/LocalPC-EXP/subject-4.csv","psycho",4,74,18,"Lentiform Loewenfeld","3.3.8","['vert', 'hori', 'vert', 'vert', 'hori', 'hori', 'vert', 'hori']","yes",100,"circles","no",0,NA,2,"legacy",NA,1024,2,48000,-16,"experiment",4,"even","red","yes",0,"circle",410480.9268,678043.9868,678044.0339,NA,680725.6734,NA,NA,109348.4187,3877.67660000009,609521.295,109348.4406,790112.4499,793777.6848,NA,NA,NA,NA,3877.75469999997,735001.4948,609007.9571,NA,790112.4646,735489.8815,790112.3997,"New experiment",19,"[0]","dist_present",56,14,"yes","yes",1680,-21.2101640023026,10.284109263234,"more away","False","NR","NR","lp","Left",NA,NA,NA,0,-3,"first",6,"NR","ex"
"75",1509.5256000004,24717.7928999998,106961.2786,11,37,"n",6,"['6']","y","#000000","no",781327.3953,2,"bias","psycho","psycho","psycho",0,"uniform",1,0,1,1,NA,1,0,NA,0,0,1,0,74,74,NA,NA,NA,NA,0,1,1,NA,74,1,74,73.2296414732588,"Wed Aug  4 11:46:48 2021","The main experiment item","yes","red","no","1","circle",NA,"pinging_target_expectations 3.2.osexp","C:\Users\etp-cp-ping\Desktop\LocalPC-EXP",75,"no","mono","no",18,"no","white","no","yes",1050,NA,0,"psycho",18,1,18,"C:/Users/etp-cp-ping/Desktop/LocalPC-EXP/subject-4.csv","psycho",4,75,19,"Lentiform Loewenfeld","3.3.8","['hori', 'hori', 'vert', 'hori', 'vert', 'vert', 'vert', 'hori']","yes",100,"diamond","no",0,NA,2,"legacy",NA,1024,2,48000,-16,"experiment",4,"even","green","yes",0,"diamond",410480.9268,678043.9868,678044.0339,NA,680725.6734,NA,NA,109348.4187,3877.67660000009,609521.295,109348.4406,793808.4234,797249.6304,NA,NA,NA,NA,3877.75469999997,735001.4948,609007.9571,NA,793808.4378,735489.8815,793808.373,"New experiment",19,"[0]","dist_present",56,12,"yes","yes",1680,-21.4414140023026,0.324109263234011,"more away","False","R","NR","hp","Left",NA,NA,NA,0,-1,"first",0,"NR","ex"
"76",1312.43199999968,26030.2248999994,108273.710599999,12,38,"n",6,"['6']","y","#000000","no",797825.629,2,"bias","psycho","psycho","psycho",0,"uniform",1,0,1,1,NA,1,0,NA,0,0,1,0,75,75,NA,NA,NA,NA,0,1,1,NA,75,1,75,73.2296414732588,"Wed Aug  4 11:46:48 2021","The main experiment item","yes","green","no","None","diamond",NA,"pinging_target_expectations 3.2.osexp","C:\Users\etp-cp-ping\Desktop\LocalPC-EXP",75,"no","mono","no",18,"no","white","no","yes",1050,NA,0,"psycho",19,1,19,"C:/Users/etp-cp-ping/Desktop/LocalPC-EXP/subject-4.csv","psycho",5,76,20,"Lentiform Loewenfeld","3.3.8","['vert', 'hori', 'vert', 'vert', 'vert', 'hori', 'hori', 'hori']","yes",100,"diamond","no",0,NA,2,"legacy",NA,1024,2,48000,-16,"experiment",4,"even","red","no",2,"circle",410480.9268,678043.9868,678044.0339,NA,680725.6734,NA,NA,109348.4187,3877.67660000009,609521.295,109348.4406,797283.5801,800385.6867,NA,NA,NA,NA,3877.75469999997,735001.4948,609007.9571,NA,797283.5945,735489.8815,797283.5278,"New experiment",19,"[0, 83.20604242244798, 102.77372091133553, 121.67679877189302, 143.49037769554823, 159.2589093888543, 177.5287985000611, 197.8783419747002, 224.0221568293828, 252.08616850700042, 280.6897691167538, 311.897880024018, 347.60347543258695, 383.3199010971771, 418.86927174129494, 459.0277778308331, 499.0010226252602, 537.0225520280499, 571.4175699376083, 605.7799049991518, 636.8328223889501, 672.4067865232327, 703.1520288554934, 710.5274651829428]","dist_absent",56,39,"yes","no",1680,-32.4131640023026,-8.86139073676599,"more away","False","NR","NR","hp",NA,"Left",NA,"Left",-2,NA,"first",0,"R","in"
"77",1865.80819999974,27896.0330999992,110139.518799999,13,39,"n",6,"['6']","y","#000000","no",797825.629,2,"bias","psycho","psycho","psycho",0,"uniform",1,0,1,1,NA,1,0,NA,0,0,1,0,76,76,NA,NA,NA,NA,0,1,1,NA,76,1,76,73.2296414732588,"Wed Aug  4 11:46:48 2021","The main experiment item","yes","green","no","3","circle",NA,"pinging_target_expectations 3.2.osexp","C:\Users\etp-cp-ping\Desktop\LocalPC-EXP",75,"no","mono","no",18,"no","white","no","yes",1050,NA,0,"psycho",20,1,20,"C:/Users/etp-cp-ping/Desktop/LocalPC-EXP/subject-4.csv","psycho",5,77,21,"Lentiform Loewenfeld","3.3.8","['hori', 'vert', 'vert', 'hori', 'hori', 'vert', 'hori', 'vert']","yes",100,"circles","no",0,NA,2,"legacy",NA,1024,2,48000,-16,"experiment",4,"even","red","no",4,"diamond",410480.9268,678043.9868,678044.0339,NA,680725.6734,NA,NA,109348.4187,3877.67660000009,609521.295,109348.4406,800416.2743,804081.6742,NA,NA,NA,NA,3877.75469999997,735001.4948,609007.9571,NA,800416.2887,735489.8815,800416.2244,"New experiment",19,"[0]","dist_present",56,54,"yes","yes",1680,-12.8734140023026,-5.62039073676599,"more away","False","NR","NR","lp","Left",NA,NA,NA,4,-3,"first",2,"NR","in"
"78",1426.19979999971,29322.2328999989,111565.718599999,14,40,"n",6,"['6']","y","#000000","no",804627.7213,2,"bias","psycho","psycho","psycho",0,"uniform",1,0,1,1,NA,1,0,NA,0,0,1,0,77,77,NA,NA,NA,NA,0,1,1,NA,77,1,77,73.2296414732588,"Wed Aug  4 11:46:48 2021","The main experiment item","yes","red","no","6","diamond",NA,"pinging_target_expectations 3.2.osexp","C:\Users\etp-cp-ping\Desktop\LocalPC-EXP",75,"no","mono","no",18,"no","white","no","yes",1050,NA,0,"psycho",21,1,21,"C:/Users/etp-cp-ping/Desktop/LocalPC-EXP/subject-4.csv","psycho",6,78,22,"Lentiform Loewenfeld","3.3.8","['vert', 'hori', 'vert', 'vert', 'hori', 'hori', 'hori', 'vert']","no",200,"None","no",0,NA,2,"legacy",NA,1024,2,48000,-16,"experiment",4,"even","green","yes",0,"circle",410480.9268,678043.9868,678044.0339,NA,680725.6734,NA,NA,109348.4187,3877.67660000009,609521.295,109348.4406,804112.2998,807201.6263,NA,NA,NA,NA,3877.75469999997,735001.4948,609007.9571,NA,804112.316,735489.8815,804112.2498,"New experiment",19,"[0, 96.91402247077119, 151.46688546536737, 213.4929741232718, 284.87992880842137, 366.60190652954105, 454.743305088651, 537.2412717461154, 622.4261321831007, 709.6674874727453, 792.2271758647967, 861.253439202472, 876.7235020742618]","dist_present",56,17,"yes","no",1680,-10.0389140023026,-1.69964073676599,"more away","False","NR","NR","lp","Right",NA,"Right",NA,0,2,"first",4,"NR","ex"
"79",1590.96690000023,30913.1997999991,113156.685499999,14,40,"n",6,"['6']","y","#000000","no",804627.7213,2,"bias","psycho","psycho","psycho",0,"uniform",0,0,1,1,NA,1,0,NA,0,0,1,0,78,78,NA,NA,NA,NA,0,1,1,NA,78,1,78,73.2296414732588,"Wed Aug  4 11:46:48 2021","The main experiment item","yes","red","no","6","diamond",NA,"pinging_target_expectations 3.2.osexp","C:\Users\etp-cp-ping\Desktop\LocalPC-EXP",75,"no","mono","no",18,"no","white","no","yes",1050,NA,0,"psycho",22,1,22,"C:/Users/etp-cp-ping/Desktop/LocalPC-EXP/subject-4.csv","psycho",6,79,23,"Lentiform Loewenfeld","3.3.8","['hori', 'vert', 'hori', 'vert', 'vert', 'hori', 'vert', 'hori']","no",200,"None","no",0,NA,2,"legacy",NA,1024,2,48000,-16,"experiment",4,"even","green","no",5,"circle",410480.9268,678043.9868,678044.0339,NA,680725.6734,NA,NA,109348.4187,3877.67660000009,609521.295,109348.4406,807232.2984,810801.6175,NA,NA,NA,NA,3877.75469999997,735001.4948,609007.9571,NA,807232.3128,735489.8815,807232.2486,"New experiment",19,"[0]","dist_present",56,67,"yes","yes",1680,-5.98841400230262,0.49935926323401,"more away","False","NR","R","hp",NA,NA,NA,NA,3,2,"first",0,"NR","in"
"80",743.291800000006,31656.4915999991,113899.977299999,15,41,"n",6,"['6']","y","#000000","no",804627.7213,2,"bias","psycho","psycho","psycho",0,"uniform",1,0,1,1,NA,1,0,NA,0,0,1,0,79,79,NA,NA,NA,NA,0,1,1,NA,79,1,79,73.2296414732588,"Wed Aug  4 11:46:48 2021","The main experiment item","yes","red","no","5","circle",NA,"pinging_target_expectations 3.2.osexp","C:\Users\etp-cp-ping\Desktop\LocalPC-EXP",75,"no","mono","no",18,"no","white","no","yes",1050,NA,0,"psycho",23,1,23,"C:/Users/etp-cp-ping/Desktop/LocalPC-EXP/subject-4.csv","psycho",6,80,24,"Lentiform Loewenfeld","3.3.8","['hori', 'hori', 'hori', 'vert', 'vert', 'hori', 'vert', 'vert']","yes",100,"diamond","no",0,NA,2,"legacy",NA,1024,2,48000,-16,"experiment",4,"even","green","yes",0,"diamond",410480.9268,678043.9868,678044.0339,NA,680725.6734,NA,NA,109348.4187,3877.67660000009,609521.295,109348.4406,810832.1682,813409.5643,NA,NA,NA,NA,3877.75469999997,735001.4948,609007.9571,NA,810832.1826,735489.8815,810832.1183,"New experiment",19,"[0]","dist_present",56,16,"yes","yes",1680,-14.8421640023026,0.0278592632340099,"more away","False","NR","NR","lp","Right",NA,NA,NA,0,3,"first",5,"NR","ex"
"81",1538.37840000005,33194.8699999992,115438.355699999,16,42,"n",6,"['6']","y","#000000","no",804627.7213,2,"bias","psycho","psycho","psycho",0,"uniform",1,0,1,1,NA,1,0,NA,0,0,1,0,80,80,NA,NA,NA,NA,0,1,1,NA,80,1,80,73.2296414732588,"Wed Aug  4 11:46:48 2021","The main experiment item","yes","green","no","None","diamond",NA,"pinging_target_expectations 3.2.osexp","C:\Users\etp-cp-ping\Desktop\LocalPC-EXP",75,"no","mono","no",18,"no","white","no","yes",1050,NA,0,"psycho",24,1,24,"C:/Users/etp-cp-ping/Desktop/LocalPC-EXP/subject-4.csv","psycho",6,81,25,"Lentiform Loewenfeld","3.3.8","['vert', 'hori', 'vert', 'hori', 'hori', 'vert', 'hori', 'vert']","yes",100,"circles","no",0,NA,2,"legacy",NA,1024,2,48000,-16,"experiment",4,"even","red","no",2,"circle",410480.9268,678043.9868,678044.0339,NA,680725.6734,NA,NA,109348.4187,3877.67660000009,609521.295,109348.4406,813440.225,816801.6597,NA,NA,NA,NA,3877.75469999997,735001.4948,609007.9571,NA,813440.2393,735489.8815,813440.1754,"New experiment",19,"[0]","dist_absent",56,39,"yes","yes",1680,-12.2949140023026,-9.18739073676599,"more toward","False","NR","NR","hp",NA,"Left",NA,"Left",-2,NA,"first",0,"NR","in"
"82",754.95540000021,33949.8253999994,116193.311099999,17,43,"n",6,"['6']","y","#000000","no",804627.7213,2,"bias","psycho","psycho","psycho",0,"uniform",1,0,1,1,NA,1,0,NA,0,0,1,0,81,81,NA,NA,NA,NA,0,1,1,NA,81,1,81,73.2296414732588,"Wed Aug  4 11:46:48 2021","The main experiment item","yes","green","no","None","circle",NA,"pinging_target_expectations 3.2.osexp","C:\Users\etp-cp-ping\Desktop\LocalPC-EXP",75,"no","mono","no",18,"no","white","no","yes",1050,NA,0,"psycho",25,1,25,"C:/Users/etp-cp-ping/Desktop/LocalPC-EXP/subject-4.csv","psycho",6,82,26,"Lentiform Loewenfeld","3.3.8","['hori', 'vert', 'vert', 'hori', 'vert', 'vert', 'hori', 'hori']","no",200,"None","no",0,NA,2,"legacy",NA,1024,2,48000,-16,"experiment",4,"even","red","yes",0,"diamond",410480.9268,678043.9868,678044.0339,NA,680725.6734,NA,NA,109348.4187,3877.67660000009,609521.295,109348.4406,816832.6461,819633.5184,NA,NA,NA,NA,3877.75469999997,735001.4948,609007.9571,NA,816832.6604,735489.8815,816832.5963,"New experiment",19,"[0]","dist_absent",56,19,"yes","yes",1680,-12.4426640023026,-10.979640736766,"more toward","False","NR","R","lp",NA,NA,NA,NA,0,NA,"first",2,"NR","ex"
"83",1103.31440000026,35053.1397999997,117296.625499999,18,44,"n",6,"['6']","y","#000000","no",804627.7213,2,"bias","psycho","psycho","psycho",0,"uniform",1,0,1,1,NA,1,0,NA,0,0,1,0,82,82,NA,NA,NA,NA,0,1,1,NA,82,1,82,73.2296414732588,"Wed Aug  4 11:46:48 2021","The main experiment item","yes","green","no","7","circle",NA,"pinging_target_expectations 3.2.osexp","C:\Users\etp-cp-ping\Desktop\LocalPC-EXP",75,"no","mono","no",18,"no","white","no","yes",1050,NA,0,"psycho",26,1,26,"C:/Users/etp-cp-ping/Desktop/LocalPC-EXP/subject-4.csv","psycho",6,83,27,"Lentiform Loewenfeld","3.3.8","['hori', 'vert', 'hori', 'hori', 'vert', 'vert', 'hori', 'vert']","yes",100,"diamond","no",0,NA,2,"legacy",NA,1024,2,48000,-16,"experiment",4,"even","red","no",4,"diamond",410480.9268,678043.9868,678044.0339,NA,680725.6734,NA,NA,109348.4187,3877.67660000009,609521.295,109348.4406,819664.1121,822625.5703,NA,NA,NA,NA,3877.75469999997,735001.4948,609007.9571,NA,819664.1264,735489.8815,819664.0633,"New experiment",19,"[0]","dist_present",56,58,"yes","yes",1680,-10.9306640023026,-13.122640736766,"more toward","False","NR","NR","hp","Right",NA,NA,NA,4,1,"first",0,"NR","in"
"84",1120.22070000006,36173.3604999997,118416.8462,19,45,"n",6,"['6']","y","#000000","no",804627.7213,2,"bias","psycho","psycho","psycho",0,"uniform",1,0,1,1,NA,1,0,NA,0,0,1,0,83,83,NA,NA,NA,NA,0,1,1,NA,83,1,83,73.2296414732588,"Wed Aug  4 11:46:48 2021","The main experiment item","yes","green","no","5","diamond",NA,"pinging_target_expectations 3.2.osexp","C:\Users\etp-cp-ping\Desktop\LocalPC-EXP",75,"no","mono","no",18,"no","white","no","yes",1050,NA,0,"psycho",27,1,27,"C:/Users/etp-cp-ping/Desktop/LocalPC-EXP/subject-4.csv","psycho",6,84,28,"Lentiform Loewenfeld","3.3.8","['vert', 'hori', 'vert', 'vert', 'hori', 'hori', 'hori', 'vert']","yes",100,"diamond","no",0,NA,2,"legacy",NA,1024,2,48000,-16,"experiment",4,"even","red","no",6,"circle",410480.9268,678043.9868,678044.0339,NA,680725.6734,NA,NA,109348.4187,3877.67660000009,609521.295,109348.4406,822656.2778,825585.5956,NA,NA,NA,NA,3877.75469999997,735001.4948,609007.9571,NA,822656.2922,735489.8815,822656.2292,"New experiment",19,"[0]","dist_present",56,76,"yes","yes",1680,-1.18366400230262,-17.528390736766,"more toward","False","NR","NR","lp",NA,NA,NA,NA,2,3,"first",4,"NR","in"
