"","RT","RT_bl","RT_tot","acc_bl","acc_tot","answer_debrief_1","answer_debrief_2","answer_debrief_3","answer_debrief_4","background","bidi","blink_onset","block_cnt","block_type","canvas_backend","clock_backend","color_backend","compensation","coordinates","correct","count_block_loop","count_block_seq","count_block_settings","count_check_session","count_drift_correct","count_end_loop","count_end_seq","count_exp_settings","count_experiment","count_feedback","count_instructions","count_log_variables","count_logger","count_new_inline_script","count_new_pygaze_drift_correct","count_new_pygaze_start_recording","count_new_pygaze_stop_recording","count_pygaze","count_start_recording","count_stop_recording","count_test_location","count_trial","count_trial_loop","count_trial_seq","d_eye","datetime","description","disable_garbage_collection","dist_color","dist_high","dist_loc","dist_shape","empty_column","experiment_file","experiment_path","eye_threshold_length","font_bold","font_family","font_italic","font_size","font_underline","foreground","form_clicks","fullscreen","height","high_loc","high_prob_loc","keyboard_backend","live_row","live_row_block_loop","live_row_trial_loop","logfile","mouse_backend","nr_blinks","nr_trials","nr_trials_bl","opensesame_codename","opensesame_version","orient_list_trial","ping","ping_trigger","ping_type","practice","repeat_cycle","response","round_decimals","sampler_backend","session_nr","sound_buf_size","sound_channels","sound_freq","sound_sample_size","start","subject_nr","subject_parity","target_color","target_high","target_loc","target_shape","time_block_loop","time_block_seq","time_block_settings","time_check_session","time_drift_correct","time_end_loop","time_end_seq","time_exp_settings","time_experiment","time_feedback","time_instructions","time_log_variables","time_logger","time_new_inline_script","time_new_pygaze_drift_correct","time_new_pygaze_start_recording","time_new_pygaze_stop_recording","time_pygaze","time_start_recording","time_stop_recording","time_test_location","time_trial","time_trial_loop","time_trial_seq","title","total_blocks","tracker_dev","trial_type","trials_in_block","trigger","uniform_coordinates","update_blinks","width","x","y","toward","containsNaN","rept","repd","prevtar","pd","nt","pd_c","nt_c","tar_dist","dist_dist","prevHP","eegTar","repteeg","tarcounter"
"1",1383.15499999945,1383.15499999945,1383.15499999945,1,1,"y",1,"['5', '8', 'space']","y","#000000","no",552134.2429,1,"neutral","psycho","psycho","psycho",0,"uniform",1,0,0,0,NA,0,0,NA,0,0,0,0,0,0,NA,NA,NA,NA,0,0,0,NA,0,0,0,73.2296414732588,"Thu Nov 25 14:34:53 2021","The main experiment item","yes","green","no","7","diamond",NA,"pinging_target_expectations 4.0.osexp","C:\Users\etp-cp-ping\Desktop\LocalPC-EXP",75,"no","mono","no",18,"no","white","no","yes",1050,NA,100,"psycho",0,0,0,"C:/Users/etp-cp-ping/Desktop/LocalPC-EXP/subject-13.csv","psycho",1,1,1,"Lentiform Loewenfeld","3.3.8","['vert', 'hori', 'hori', 'hori', 'vert', 'hori', 'vert', 'vert']","no",209,"None","yes",0,NA,2,"legacy",NA,1024,2,48000,-16,"experiment",13,"odd","red","no",0,"circle",542164.2646,542189.3609,542189.399500001,NA,548932.276699999,NA,NA,218687.967,1363.68270000094,NA,218687.989800001,549842.4959,553045.386600001,NA,NA,NA,NA,1363.75950000001,549466.557900001,NA,NA,549842.511000001,549838.1928,549842.4547,"New experiment",19,"[0]","dist_present",56,18,"yes","no",1680,NA,NA,NA,NA,"NR","NR","lp","Right",NA,NA,NA,NA,NA,"practice",999,"NR","in"
"2",2000.1725000001,3383.32749999955,3383.32749999955,1,1,"y",1,"['5', '8', 'space']","y","#000000","no",552134.2429,1,"neutral","psycho","psycho","psycho",0,"uniform",0,0,0,0,NA,0,0,NA,0,0,0,0,1,1,NA,NA,NA,NA,0,0,0,NA,1,0,1,73.2296414732588,"Thu Nov 25 14:34:53 2021","The main experiment item","yes","red","no","0","diamond",NA,"pinging_target_expectations 4.0.osexp","C:\Users\etp-cp-ping\Desktop\LocalPC-EXP",75,"no","mono","no",18,"no","white","no","yes",1050,NA,100,"psycho",1,0,1,"C:/Users/etp-cp-ping/Desktop/LocalPC-EXP/subject-13.csv","psycho",1,2,2,"Lentiform Loewenfeld","3.3.8","['hori', 'vert', 'vert', 'hori', 'vert', 'vert', 'hori', 'hori']","no",209,"None","yes",0,NA,2,"legacy",NA,1024,2,48000,-16,"experiment",13,"odd","green","no",7,"circle",542164.2646,542189.3609,542189.399500001,NA,548932.276699999,NA,NA,218687.967,1363.68270000094,NA,218687.989800001,553086.859000001,557011.283400001,NA,NA,NA,NA,1363.75950000001,549466.557900001,NA,NA,553086.873600001,549838.1928,553086.808100001,"New experiment",19,"[0]","dist_present",56,81,"yes","yes",1680,NA,NA,NA,NA,"NR","NR","lp",NA,"Right",NA,NA,NA,NA,"practice",0,"NR","in"
"3",1525.49459999858,4908.82209999813,4908.82209999813,2,2,"y",1,"['5', '8', 'space']","y","#000000","no",559155.950500001,1,"neutral","psycho","psycho","psycho",0,"uniform",1,0,0,0,NA,0,0,NA,0,0,0,0,2,2,NA,NA,NA,NA,0,0,0,NA,2,0,2,73.2296414732588,"Thu Nov 25 14:34:53 2021","The main experiment item","yes","green","no","None","circle",NA,"pinging_target_expectations 4.0.osexp","C:\Users\etp-cp-ping\Desktop\LocalPC-EXP",75,"no","mono","no",18,"no","white","no","yes",1050,NA,100,"psycho",2,0,2,"C:/Users/etp-cp-ping/Desktop/LocalPC-EXP/subject-13.csv","psycho",2,3,3,"Lentiform Loewenfeld","3.3.8","['vert', 'vert', 'hori', 'hori', 'vert', 'hori', 'hori', 'vert']","yes",109,"circles","yes",0,NA,2,"legacy",NA,1024,2,48000,-16,"experiment",13,"odd","red","no",4,"diamond",542164.2646,542189.3609,542189.399500001,NA,548932.276699999,NA,NA,218687.967,1363.68270000094,NA,218687.989800001,557042.0202,560581.4199,NA,NA,NA,NA,1363.75950000001,549466.557900001,NA,NA,557042.034600001,549838.1928,557041.9712,"New experiment",19,"[0]","dist_absent",56,59,"yes","yes",1680,NA,NA,NA,NA,"NR","NR","lp",NA,NA,NA,NA,NA,NA,"practice",7,"NR","in"
"4",2000.34260000032,6909.16469999845,6909.16469999845,2,2,"y",1,"['5', '8', 'space']","y","#000000","no",559155.950500001,1,"neutral","psycho","psycho","psycho",0,"uniform",0,0,0,0,NA,0,0,NA,0,0,0,0,3,3,NA,NA,NA,NA,0,0,0,NA,3,0,3,73.2296414732588,"Thu Nov 25 14:34:53 2021","The main experiment item","yes","green","no","0","circle",NA,"pinging_target_expectations 4.0.osexp","C:\Users\etp-cp-ping\Desktop\LocalPC-EXP",75,"no","mono","no",18,"no","white","no","yes",1050,NA,100,"psycho",3,0,3,"C:/Users/etp-cp-ping/Desktop/LocalPC-EXP/subject-13.csv","psycho",2,4,4,"Lentiform Loewenfeld","3.3.8","['vert', 'hori', 'vert', 'hori', 'vert', 'hori', 'hori', 'vert']","yes",109,"circles","yes",0,NA,2,"legacy",NA,1024,2,48000,-16,"experiment",13,"odd","red","no",7,"diamond",542164.2646,542189.3609,542189.399500001,NA,548932.276699999,NA,NA,218687.967,1363.68270000094,NA,218687.989800001,560611.559500001,564465.8901,NA,NA,NA,NA,1363.75950000001,549466.557900001,NA,NA,560611.573800001,549838.1928,560611.508600001,"New experiment",19,"[0]","dist_present",56,81,"yes","yes",1680,NA,NA,NA,NA,"NR","NR","lp",NA,"Right",NA,NA,NA,NA,"practice",4,"NR","in"
"5",1662.01080000063,8571.17549999908,8571.17549999908,2,2,"y",1,"['5', '8', 'space']","y","#000000","no",565268.059800001,1,"neutral","psycho","psycho","psycho",0,"uniform",0,0,0,0,NA,0,0,NA,0,0,0,0,4,4,NA,NA,NA,NA,0,0,0,NA,4,0,4,73.2296414732588,"Thu Nov 25 14:34:53 2021","The main experiment item","yes","red","no","3","circle",NA,"pinging_target_expectations 4.0.osexp","C:\Users\etp-cp-ping\Desktop\LocalPC-EXP",75,"no","mono","no",18,"no","white","no","yes",1050,NA,100,"psycho",4,0,4,"C:/Users/etp-cp-ping/Desktop/LocalPC-EXP/subject-13.csv","psycho",4,5,5,"Lentiform Loewenfeld","3.3.8","['hori', 'vert', 'vert', 'vert', 'hori', 'hori', 'hori', 'vert']","yes",109,"diamond","yes",0,NA,2,"legacy",NA,1024,2,48000,-16,"experiment",13,"odd","green","no",2,"diamond",542164.2646,542189.3609,542189.399500001,NA,548932.276699999,NA,NA,218687.967,1363.68270000094,NA,218687.989800001,564496.0553,568117.4157,NA,NA,NA,NA,1363.75950000001,549466.557900001,NA,NA,564496.0699,549838.1928,564496.003300001,"New experiment",19,"[0]","dist_present",56,34,"yes","yes",1680,NA,NA,NA,NA,"NR","NR","lp",NA,NA,NA,NA,NA,NA,"practice",7,"NR","in"
"6",1047.7910999998,9618.96659999888,9618.96659999888,3,3,"y",1,"['5', '8', 'space']","y","#000000","no",568889.646,1,"neutral","psycho","psycho","psycho",0,"uniform",1,0,0,0,NA,0,0,NA,0,0,0,0,5,5,NA,NA,NA,NA,0,0,0,NA,5,0,5,73.2296414732588,"Thu Nov 25 14:34:53 2021","The main experiment item","yes","red","no","None","diamond",NA,"pinging_target_expectations 4.0.osexp","C:\Users\etp-cp-ping\Desktop\LocalPC-EXP",75,"no","mono","no",18,"no","white","no","yes",1050,NA,100,"psycho",5,0,5,"C:/Users/etp-cp-ping/Desktop/LocalPC-EXP/subject-13.csv","psycho",6,6,6,"Lentiform Loewenfeld","3.3.8","['vert', 'vert', 'hori', 'hori', 'vert', 'hori', 'vert', 'hori']","yes",109,"circles","yes",0,NA,2,"legacy",NA,1024,2,48000,-16,"experiment",13,"odd","green","no",5,"circle",542164.2646,542189.3609,542189.399500001,NA,548932.276699999,NA,NA,218687.967,1363.68270000094,NA,218687.989800001,568148.056300001,571109.367700001,NA,NA,NA,NA,1363.75950000001,549466.557900001,NA,NA,568148.071,549838.1928,568148.005000001,"New experiment",19,"[0, 82.01976461261958, 91.99226065549756, 99.72247669607705, 115.38462708684094, 130.79135394437492, 141.64856558685545, 154.96387631918537, 171.39920105720162, 188.55768348173987, 195.5902391553121, 215.58185234623832, 231.98962789567256, 240.47719979874844, 260.47768053264116, 278.4707447360112, 292.92656672977677, 309.756759409702, 326.2868988353098, 344.180463563847, 357.6085058988552, 369.9549567111082, 389.6598620286327, 407.91781637603594, 421.18706537367353, 440.1048170606634, 457.14843028229967, 479.8473728036068, 494.4803001103949, 515.6515315996024, 531.2464358497192, 553.1019528213984, 605.9828240889514, 629.1721483937887, 650.109294390815, 670.5986131807908, 688.6293280887103, 711.3432367628754, 742.8298267166997, 768.7738762727023, 792.315593687263, 811.5111623635422, 834.6017131203708, 848.0666431367129, 865.7181084458256, 886.2220179269949, 903.2246380901196, 914.8000648888836, 931.6624657686244, 938.2007782610237, 953.9681598460191, 985.3053901013109, 1016.7780481041307, 1040.988443918133, 1041.6299732073694]","dist_absent",56,69,"yes","no",1680,NA,NA,NA,NA,"NR","NR","lp",NA,"Right",NA,NA,NA,NA,"practice",2,"NR","in"
"7",1695.82110000018,11314.7876999991,11314.7876999991,4,4,"y",1,"['5', '8', 'space']","y","#000000","no",568889.646,1,"neutral","psycho","psycho","psycho",0,"uniform",1,0,0,0,NA,0,0,NA,0,0,0,0,6,6,NA,NA,NA,NA,0,0,0,NA,6,0,6,73.2296414732588,"Thu Nov 25 14:34:53 2021","The main experiment item","yes","red","no","6","circle",NA,"pinging_target_expectations 4.0.osexp","C:\Users\etp-cp-ping\Desktop\LocalPC-EXP",75,"no","mono","no",18,"no","white","no","yes",1050,NA,100,"psycho",6,0,6,"C:/Users/etp-cp-ping/Desktop/LocalPC-EXP/subject-13.csv","psycho",6,7,7,"Lentiform Loewenfeld","3.3.8","['vert', 'vert', 'vert', 'hori', 'vert', 'hori', 'hori', 'hori']","no",209,"None","yes",0,NA,2,"legacy",NA,1024,2,48000,-16,"experiment",13,"odd","green","no",5,"diamond",542164.2646,542189.3609,542189.399500001,NA,548932.276699999,NA,NA,218687.967,1363.68270000094,NA,218687.989800001,571139.9953,574645.3702,NA,NA,NA,NA,1363.75950000001,549466.557900001,NA,NA,571140.009300001,549838.1928,571139.943,"New experiment",19,"[0]","dist_present",56,67,"yes","yes",1680,NA,NA,NA,NA,"R","NR","lp",NA,NA,NA,NA,NA,NA,"practice",5,"NR","in"
"8",1256.17919999978,12570.9668999988,12570.9668999988,5,5,"y",1,"['5', '8', 'space']","y","#000000","no",575146.7619,1,"neutral","psycho","psycho","psycho",0,"uniform",1,0,0,0,NA,0,0,NA,0,0,0,0,7,7,NA,NA,NA,NA,0,0,0,NA,7,0,7,73.2296414732588,"Thu Nov 25 14:34:53 2021","The main experiment item","yes","red","no","2","circle",NA,"pinging_target_expectations 4.0.osexp","C:\Users\etp-cp-ping\Desktop\LocalPC-EXP",75,"no","mono","no",18,"no","white","no","yes",1050,NA,100,"psycho",7,0,7,"C:/Users/etp-cp-ping/Desktop/LocalPC-EXP/subject-13.csv","psycho",7,8,8,"Lentiform Loewenfeld","3.3.8","['hori', 'vert', 'vert', 'hori', 'hori', 'vert', 'vert', 'hori']","no",209,"None","yes",0,NA,2,"legacy",NA,1024,2,48000,-16,"experiment",13,"odd","green","no",3,"diamond",542164.2646,542189.3609,542189.399500001,NA,548932.276699999,NA,NA,218687.967,1363.68270000094,NA,218687.989800001,574676.263700001,577893.4166,NA,NA,NA,NA,1363.75950000001,549466.557900001,NA,NA,574676.2781,549838.1928,574676.2127,"New experiment",19,"[0]","dist_present",56,43,"yes","yes",1680,NA,NA,NA,NA,"NR","NR","lp",NA,NA,NA,NA,NA,NA,"practice",5,"R","in"
"9",1104.55559999903,13675.5224999979,13675.5224999979,6,6,"y",1,"['5', '8', 'space']","y","#000000","no",575146.7619,1,"neutral","psycho","psycho","psycho",0,"uniform",1,0,0,0,NA,0,0,NA,0,0,0,0,8,8,NA,NA,NA,NA,0,0,0,NA,8,0,8,73.2296414732588,"Thu Nov 25 14:34:53 2021","The main experiment item","yes","green","no","4","circle",NA,"pinging_target_expectations 4.0.osexp","C:\Users\etp-cp-ping\Desktop\LocalPC-EXP",75,"no","mono","no",18,"no","white","no","yes",1050,NA,100,"psycho",8,0,8,"C:/Users/etp-cp-ping/Desktop/LocalPC-EXP/subject-13.csv","psycho",7,9,9,"Lentiform Loewenfeld","3.3.8","['hori', 'hori', 'vert', 'hori', 'hori', 'vert', 'vert', 'vert']","no",209,"None","yes",0,NA,2,"legacy",NA,1024,2,48000,-16,"experiment",13,"odd","red","no",5,"diamond",542164.2646,542189.3609,542189.399500001,NA,548932.276699999,NA,NA,218687.967,1363.68270000094,NA,218687.989800001,577923.960100001,581045.350800001,NA,NA,NA,NA,1363.75950000001,549466.557900001,NA,NA,577923.974900001,549838.1928,577923.9105,"New experiment",19,"[0]","dist_present",56,65,"yes","yes",1680,NA,NA,NA,NA,"NR","NR","lp",NA,"Right",NA,NA,NA,NA,"practice",3,"NR","in"
"10",908.086999999825,14583.6094999977,14583.6094999977,7,7,"y",1,"['5', '8', 'space']","y","#000000","no",575146.7619,1,"neutral","psycho","psycho","psycho",0,"uniform",1,0,0,0,NA,0,0,NA,0,0,0,0,9,9,NA,NA,NA,NA,0,0,0,NA,9,0,9,73.2296414732588,"Thu Nov 25 14:34:53 2021","The main experiment item","yes","green","no","4","circle",NA,"pinging_target_expectations 4.0.osexp","C:\Users\etp-cp-ping\Desktop\LocalPC-EXP",75,"no","mono","no",18,"no","white","no","yes",1050,NA,100,"psycho",9,0,9,"C:/Users/etp-cp-ping/Desktop/LocalPC-EXP/subject-13.csv","psycho",7,10,10,"Lentiform Loewenfeld","3.3.8","['hori', 'hori', 'vert', 'vert', 'vert', 'hori', 'hori', 'vert']","yes",109,"circles","yes",0,NA,2,"legacy",NA,1024,2,48000,-16,"experiment",13,"odd","red","no",6,"diamond",542164.2646,542189.3609,542189.399500001,NA,548932.276699999,NA,NA,218687.967,1363.68270000094,NA,218687.989800001,581075.8771,583957.365,NA,NA,NA,NA,1363.75950000001,549466.557900001,NA,NA,581075.8916,549838.1928,581075.826,"New experiment",19,"[0]","dist_present",56,75,"yes","yes",1680,NA,NA,NA,NA,"NR","R","lp",NA,"Right",NA,"Right",NA,NA,"practice",5,"NR","in"
"11",1287.04970000032,15870.659199998,15870.659199998,8,8,"y",1,"['5', '8', 'space']","y","#000000","no",575146.7619,1,"neutral","psycho","psycho","psycho",0,"uniform",1,0,0,0,NA,0,0,NA,0,0,0,0,10,10,NA,NA,NA,NA,0,0,0,NA,10,0,10,73.2296414732588,"Thu Nov 25 14:34:53 2021","The main experiment item","yes","red","no","None","diamond",NA,"pinging_target_expectations 4.0.osexp","C:\Users\etp-cp-ping\Desktop\LocalPC-EXP",75,"no","mono","no",18,"no","white","no","yes",1050,NA,100,"psycho",10,0,10,"C:/Users/etp-cp-ping/Desktop/LocalPC-EXP/subject-13.csv","psycho",7,11,11,"Lentiform Loewenfeld","3.3.8","['hori', 'hori', 'vert', 'hori', 'vert', 'hori', 'vert', 'vert']","yes",109,"diamond","yes",0,NA,2,"legacy",NA,1024,2,48000,-16,"experiment",13,"odd","green","no",1,"circle",542164.2646,542189.3609,542189.399500001,NA,548932.276699999,NA,NA,218687.967,1363.68270000094,NA,218687.989800001,583989.5425,587221.341,NA,NA,NA,NA,1363.75950000001,549466.557900001,NA,NA,583989.556800001,549838.1928,583989.492300001,"New experiment",19,"[0]","dist_absent",56,29,"yes","yes",1680,NA,NA,NA,NA,"NR","NR","lp",NA,"Left",NA,NA,NA,NA,"practice",6,"NR","in"
"12",1464.41579999914,17335.0749999972,17335.0749999972,9,9,"y",1,"['5', '8', 'space']","y","#000000","no",588024.500900001,1,"neutral","psycho","psycho","psycho",0,"uniform",1,0,0,0,NA,0,0,NA,0,0,0,0,11,11,NA,NA,NA,NA,0,0,0,NA,11,0,11,73.2296414732588,"Thu Nov 25 14:34:53 2021","The main experiment item","yes","green","no","None","diamond",NA,"pinging_target_expectations 4.0.osexp","C:\Users\etp-cp-ping\Desktop\LocalPC-EXP",75,"no","mono","no",18,"no","white","no","yes",1050,NA,100,"psycho",11,0,11,"C:/Users/etp-cp-ping/Desktop/LocalPC-EXP/subject-13.csv","psycho",8,12,12,"Lentiform Loewenfeld","3.3.8","['vert', 'hori', 'vert', 'vert', 'hori', 'vert', 'hori', 'hori']","no",209,"None","yes",0,NA,2,"legacy",NA,1024,2,48000,-16,"experiment",13,"odd","red","no",3,"circle",542164.2646,542189.3609,542189.399500001,NA,548932.276699999,NA,NA,218687.967,1363.68270000094,NA,218687.989800001,587251.859800001,590853.394,NA,NA,NA,NA,1363.75950000001,549466.557900001,NA,NA,587251.8738,549838.1928,587251.810400001,"New experiment",19,"[0, 76.26933819198108, 83.0431361458495, 90.09266552471297, 98.80322156588404, 103.2376868698421, 116.93130638369672, 128.37525525626023, 136.8607225358964, 150.71205008564118, 162.51107256447307, 173.62221668316778, 190.55364706472588, 195.18282849812286, 209.07296830106932, 230.8597249362846, 232.3904804847287, 244.96060825603922, 254.4009061113463, 270.2080646070941, 284.03312119460304, 297.8544107445784, 305.4976484412379, 323.25485220658084, 333.43740042172834, 348.747728830252, 361.8577281945244, 374.5001278983755, 393.9369170926212, 400.81360291565426, 411.83036463257366, 423.4307859130988, 443.10760760120456, 452.6695058547267, 469.1245595448663, 489.80064280270415, 503.87332062222106, 519.5889511801388, 544.1116328533589, 560.4370976478308, 590.143897102317, 612.4188408363434, 629.0529553850865, 654.6470402753752, 674.128658045077, 689.1268623161668, 704.4074378171692, 727.1319382957249, 740.9885800036337, 754.8684700941844, 775.640182258491, 790.6121349944538, 798.6109463028216, 815.4194103948197, 823.9753206946008, 836.0857896173694, 844.1199442963585, 857.8198017050364, 869.2347465806268, 878.8857693030428, 890.6015853144723, 895.7341868046822, 907.822751622948, 914.3920836579077, 926.1558992981098, 937.5150928863221, 946.7858870814262, 956.5046538730809, 968.5472168533732, 974.0961177778721, 984.0950906351022]","dist_absent",56,49,"yes","no",1680,NA,NA,NA,NA,"NR","R","lp",NA,"Left",NA,NA,NA,NA,"practice",1,"NR","in"
"13",980.278799999738,18315.3537999969,18315.3537999969,10,10,"y",1,"['5', '8', 'space']","y","#000000","no",591911.5728,1,"neutral","psycho","psycho","psycho",0,"uniform",1,0,0,0,NA,0,0,NA,0,0,0,0,12,12,NA,NA,NA,NA,0,0,0,NA,12,0,12,73.2296414732588,"Thu Nov 25 14:34:53 2021","The main experiment item","yes","red","no","2","diamond",NA,"pinging_target_expectations 4.0.osexp","C:\Users\etp-cp-ping\Desktop\LocalPC-EXP",75,"no","mono","no",18,"no","white","no","yes",1050,NA,100,"psycho",12,0,12,"C:/Users/etp-cp-ping/Desktop/LocalPC-EXP/subject-13.csv","psycho",9,13,13,"Lentiform Loewenfeld","3.3.8","['vert', 'vert', 'hori', 'vert', 'hori', 'hori', 'hori', 'vert']","yes",109,"diamond","yes",0,NA,2,"legacy",NA,1024,2,48000,-16,"experiment",13,"odd","green","no",5,"circle",542164.2646,542189.3609,542189.399500001,NA,548932.276699999,NA,NA,218687.967,1363.68270000094,NA,218687.989800001,590883.886,593653.349600001,NA,NA,NA,NA,1363.75950000001,549466.557900001,NA,NA,590883.9002,549838.1928,590883.835300001,"New experiment",19,"[0, 120.11547776222707, 136.40592176721788, 149.10586893670006, 159.25835336093226, 178.70661951750904, 190.49546922797668, 210.5553519745304, 217.67282179600087, 233.89248631850094, 252.38435156143632, 261.2814546050071, 284.9904339985883, 296.06954732053606, 305.5708539435417, 323.4781025843367, 337.2618285669178, 354.26942902238255, 372.06900676608313, 384.07099050763003, 397.6161051445386, 413.026327002137, 424.48129348138013, 438.13727162178327, 452.2039144394657, 475.22036968718584, 489.5343199562619, 503.94326760834315, 522.0349952326558, 543.877888691587, 564.3429670709315, 578.0368272330907, 597.2236890935055, 612.8564947495771, 629.1824036773185, 646.2440556348371, 664.8097339564785, 679.2310913518209, 699.1063190334521, 717.3884062741365, 730.2565823125067, 742.5718995399225, 759.9289909309466, 766.1202790347234, 781.7256236237133, 787.6591280152877, 800.904984562386, 814.37982409354, 823.6481116850367, 837.6972796462098, 847.4957607819991, 854.9094981341592, 860.6464218693792, 870.4471611990331, 880.3784432142633, 891.8081918549364, 899.516047210641, 911.8129543608358, 915.7677181035095, 915.8626540316008, 926.2265112258767, 936.9416647760733, 947.9599209930157, 957.3943806945753, 964.531766196911, 978.8779278811387, 990.2179592377001, 980.7230132363617]","dist_present",56,63,"yes","no",1680,NA,NA,NA,NA,"NR","NR","lp",NA,NA,NA,NA,NA,NA,"practice",3,"NR","in"
"14",1836.52969999996,20151.8834999969,20151.8834999969,11,11,"y",1,"['5', '8', 'space']","y","#000000","no",594716.137400001,1,"neutral","psycho","psycho","psycho",0,"uniform",1,0,0,0,NA,0,0,NA,0,0,0,0,13,13,NA,NA,NA,NA,0,0,0,NA,13,0,13,73.2296414732588,"Thu Nov 25 14:34:53 2021","The main experiment item","yes","green","no","7","diamond",NA,"pinging_target_expectations 4.0.osexp","C:\Users\etp-cp-ping\Desktop\LocalPC-EXP",75,"no","mono","no",18,"no","white","no","yes",1050,NA,100,"psycho",13,0,13,"C:/Users/etp-cp-ping/Desktop/LocalPC-EXP/subject-13.csv","psycho",10,14,14,"Lentiform Loewenfeld","3.3.8","['hori', 'hori', 'vert', 'hori', 'hori', 'vert', 'vert', 'vert']","yes",109,"diamond","yes",0,NA,2,"legacy",NA,1024,2,48000,-16,"experiment",13,"odd","red","no",2,"circle",542164.2646,542189.3609,542189.399500001,NA,548932.276699999,NA,NA,218687.967,1363.68270000094,NA,218687.989800001,593684.2034,597413.461800001,NA,NA,NA,NA,1363.75950000001,549466.557900001,NA,NA,593684.217399999,549838.1928,593684.152100001,"New experiment",19,"[0]","dist_present",56,38,"yes","yes",1680,NA,NA,NA,NA,"NR","NR","lp",NA,NA,NA,NA,NA,NA,"practice",5,"NR","in"
"15",1322.52820000029,21474.4116999971,21474.4116999971,12,12,"y",1,"['5', '8', 'space']","y","#000000","no",598957.2372,1,"neutral","psycho","psycho","psycho",0,"uniform",1,0,0,0,NA,0,0,NA,0,0,0,0,14,14,NA,NA,NA,NA,0,0,0,NA,14,0,14,73.2296414732588,"Thu Nov 25 14:34:53 2021","The main experiment item","yes","red","no","2","diamond",NA,"pinging_target_expectations 4.0.osexp","C:\Users\etp-cp-ping\Desktop\LocalPC-EXP",75,"no","mono","no",18,"no","white","no","yes",1050,NA,100,"psycho",14,0,14,"C:/Users/etp-cp-ping/Desktop/LocalPC-EXP/subject-13.csv","psycho",12,15,15,"Lentiform Loewenfeld","3.3.8","['vert', 'vert', 'hori', 'vert', 'hori', 'hori', 'hori', 'vert']","no",209,"None","yes",0,NA,2,"legacy",NA,1024,2,48000,-16,"experiment",13,"odd","green","no",1,"circle",542164.2646,542189.3609,542189.399500001,NA,548932.276699999,NA,NA,218687.967,1363.68270000094,NA,218687.989800001,597444.132500001,600677.439500001,NA,NA,NA,NA,1363.75950000001,549466.557900001,NA,NA,597444.147,549838.1928,597444.0811,"New experiment",19,"[0, 76.07425212210534, 79.70507362136061, 83.83806100103187, 85.66241370107392, 87.93322724439281, 93.9321563683066, 92.77382364393483, 95.4015088359945, 93.90786820049259, 94.202589785863, 97.12368526398907, 97.24570638166122, 98.62498466462647, 96.96453779272143, 98.21145407697725, 103.84990107422223, 102.11073150877922, 101.11694981091276, 98.64932703329123, 98.63792512739533, 100.90137536857306, 103.91173411279551, 106.00400198813338, 95.40781805285253, 93.23417365148171, 95.53538353320477, 97.63303466557008, 88.2333698560394, 91.21951103977769, 93.60907469880704, 98.05229728532846, 87.99568354337487, 87.8171471676808, 83.28080200395542, 84.66829453873682, 80.13400784852698]","dist_present",56,23,"yes","yes",1680,NA,NA,NA,NA,"NR","NR","lp",NA,NA,NA,NA,NA,NA,"practice",2,"NR","in"
"16",1085.27979999967,22559.6914999968,22559.6914999968,13,13,"y",1,"['5', '8', 'space']","y","#000000","no",598957.2372,1,"neutral","psycho","psycho","psycho",0,"uniform",1,0,0,0,NA,0,0,NA,0,0,0,0,15,15,NA,NA,NA,NA,0,0,0,NA,15,0,15,73.2296414732588,"Thu Nov 25 14:34:53 2021","The main experiment item","yes","red","no","1","diamond",NA,"pinging_target_expectations 4.0.osexp","C:\Users\etp-cp-ping\Desktop\LocalPC-EXP",75,"no","mono","no",18,"no","white","no","yes",1050,NA,100,"psycho",15,0,15,"C:/Users/etp-cp-ping/Desktop/LocalPC-EXP/subject-13.csv","psycho",12,16,16,"Lentiform Loewenfeld","3.3.8","['vert', 'vert', 'hori', 'hori', 'vert', 'vert', 'hori', 'hori']","no",209,"None","yes",0,NA,2,"legacy",NA,1024,2,48000,-16,"experiment",13,"odd","green","no",6,"circle",542164.2646,542189.3609,542189.399500001,NA,548932.276699999,NA,NA,218687.967,1363.68270000094,NA,218687.989800001,600708.123,603573.3535,NA,NA,NA,NA,1363.75950000001,549466.557900001,NA,NA,600708.137200001,549838.1928,600708.073,"New experiment",19,"[0]","dist_present",56,72,"yes","yes",1680,NA,NA,NA,NA,"NR","NR","lp",NA,NA,NA,NA,NA,NA,"practice",1,"NR","in"
"17",798.695900000865,23358.3873999977,23358.3873999977,14,14,"y",1,"['5', '8', 'space']","y","#000000","no",598957.2372,1,"neutral","psycho","psycho","psycho",0,"uniform",1,0,0,0,NA,0,0,NA,0,0,0,0,16,16,NA,NA,NA,NA,0,0,0,NA,16,0,16,73.2296414732588,"Thu Nov 25 14:34:53 2021","The main experiment item","yes","red","no","None","diamond",NA,"pinging_target_expectations 4.0.osexp","C:\Users\etp-cp-ping\Desktop\LocalPC-EXP",75,"no","mono","no",18,"no","white","no","yes",1050,NA,100,"psycho",16,0,16,"C:/Users/etp-cp-ping/Desktop/LocalPC-EXP/subject-13.csv","psycho",12,17,17,"Lentiform Loewenfeld","3.3.8","['hori', 'hori', 'vert', 'vert', 'hori', 'vert', 'hori', 'vert']","yes",109,"circles","yes",0,NA,2,"legacy",NA,1024,2,48000,-16,"experiment",13,"odd","green","no",4,"circle",542164.2646,542189.3609,542189.399500001,NA,548932.276699999,NA,NA,218687.967,1363.68270000094,NA,218687.989800001,603603.8747,606117.3468,NA,NA,NA,NA,1363.75950000001,549466.557900001,NA,NA,603603.889,549838.1928,603603.8219,"New experiment",19,"[0]","dist_absent",56,59,"yes","yes",1680,NA,NA,NA,NA,"NR","NR","lp",NA,NA,NA,NA,NA,NA,"practice",6,"NR","in"
"18",866.538500000373,24224.9258999981,24224.9258999981,15,15,"y",1,"['5', '8', 'space']","y","#000000","no",606823.367000001,1,"neutral","psycho","psycho","psycho",0,"uniform",1,0,0,0,NA,0,0,NA,0,0,0,0,17,17,NA,NA,NA,NA,0,0,0,NA,17,0,17,73.2296414732588,"Thu Nov 25 14:34:53 2021","The main experiment item","yes","red","no","1","diamond",NA,"pinging_target_expectations 4.0.osexp","C:\Users\etp-cp-ping\Desktop\LocalPC-EXP",75,"no","mono","no",18,"no","white","no","yes",1050,NA,100,"psycho",17,0,17,"C:/Users/etp-cp-ping/Desktop/LocalPC-EXP/subject-13.csv","psycho",13,18,18,"Lentiform Loewenfeld","3.3.8","['vert', 'vert', 'hori', 'vert', 'hori', 'hori', 'vert', 'hori']","no",209,"None","yes",0,NA,2,"legacy",NA,1024,2,48000,-16,"experiment",13,"odd","green","no",4,"circle",542164.2646,542189.3609,542189.399500001,NA,548932.276699999,NA,NA,218687.967,1363.68270000094,NA,218687.989800001,606149.6427,608997.440700001,NA,NA,NA,NA,1363.75950000001,549466.557900001,NA,NA,606149.657,549838.1928,606149.5899,"New experiment",19,"[0, 75.70240227983683, 85.46955845424748, 96.20185902915186, 110.65451349774698, 119.33468967228632, 129.2362772839404, 143.29481511236384, 158.64047133537065, 169.63265138532668, 179.83461257738878, 195.33430885114785, 212.09248947522414, 227.24267882184057, 239.84131103198143, 252.1412460486882, 267.8012080375429, 283.6443354290666, 301.86923248404855, 316.44938047086043, 331.6453674204512, 346.71239369314446, 364.81693187704474, 379.75813770005595, 395.0946665078268, 412.75003732941076, 434.76137294079814, 450.58099641038194, 469.24383237676454, 486.70045458190765, 505.97962308722765, 542.7906924704216, 567.2794572666279, 590.5055986079283, 614.7567758846552, 634.4010803598318, 653.4104633484855, 675.6231424400637, 698.7266840083573, 717.7636281965774, 739.8575557829517, 754.806722777429, 773.2322368960658, 790.4269459660269, 804.9651817686675, 820.880741162162, 840.7356897384576, 853.9214821105412, 862.6033815023561, 876.4140317113092, 886.9160014471765, 894.3576691397708, 906.223094443005, 914.2125101772834, 931.3803735527493, 945.6320437609454]","dist_present",56,52,"yes","no",1680,NA,NA,NA,NA,"R","NR","lp","Left",NA,NA,NA,NA,NA,"practice",4,"NR","in"
"19",1201.76779999933,25426.6936999974,25426.6936999974,16,16,"y",1,"['5', '8', 'space']","y","#000000","no",609758.445400001,1,"neutral","psycho","psycho","psycho",0,"uniform",1,0,0,0,NA,0,0,NA,0,0,0,0,18,18,NA,NA,NA,NA,0,0,0,NA,18,0,18,73.2296414732588,"Thu Nov 25 14:34:53 2021","The main experiment item","yes","green","no","7","diamond",NA,"pinging_target_expectations 4.0.osexp","C:\Users\etp-cp-ping\Desktop\LocalPC-EXP",75,"no","mono","no",18,"no","white","no","yes",1050,NA,100,"psycho",18,0,18,"C:/Users/etp-cp-ping/Desktop/LocalPC-EXP/subject-13.csv","psycho",14,19,19,"Lentiform Loewenfeld","3.3.8","['hori', 'vert', 'vert', 'hori', 'vert', 'vert', 'hori', 'hori']","yes",109,"diamond","yes",0,NA,2,"legacy",NA,1024,2,48000,-16,"experiment",13,"odd","red","no",3,"circle",542164.2646,542189.3609,542189.399500001,NA,548932.276699999,NA,NA,218687.967,1363.68270000094,NA,218687.989800001,609028.064,612149.3921,NA,NA,NA,NA,1363.75950000001,549466.557900001,NA,NA,609028.0783,549838.1928,609028.0121,"New experiment",19,"[0, 76.87971968489657, 91.62979326438027, 104.13378113061745, 113.35363667850685, 127.49250333161503, 138.94901696812195, 155.23104882886062, 173.0113528509974, 186.00388163136364, 202.54664755565645, 220.25675466617355, 235.30618351416098, 253.67121939879124, 270.5796024864745, 280.575740652459, 301.40832335504024, 321.21552180770476, 336.98760741135317, 354.8547495474273, 371.0098292806428, 387.95392605967703, 399.24576151280314, 414.93674216680307, 433.76881189506094, 451.1005434304012, 473.4308072727233, 489.7943445978118, 511.5077582529226, 530.7613196554395, 553.0777161772465, 571.2981980145643, 611.6378296733297, 630.6525420517921, 659.8360987524084, 676.5349391218033, 698.0481716901778, 723.3084423355692, 745.7333679894008, 759.7643600889234, 778.7522680262673, 793.2654038881702, 812.9556840480759, 825.8174846266215, 839.546281577815, 860.229907183477, 868.3261253418408, 886.5259578326702, 892.3077684371488, 907.5319119303065, 923.7372462396082, 935.2177953588471, 949.0104037178656, 961.2496807186161, 978.2438491867364]","dist_present",56,48,"yes","no",1680,NA,NA,NA,NA,"NR","NR","lp",NA,NA,NA,NA,NA,NA,"practice",4,"R","in"
"20",1279.0273999999,26705.7210999973,26705.7210999973,17,17,"y",1,"['5', '8', 'space']","y","#000000","no",609758.445400001,1,"neutral","psycho","psycho","psycho",0,"uniform",1,0,0,0,NA,0,0,NA,0,0,0,0,19,19,NA,NA,NA,NA,0,0,0,NA,19,0,19,73.2296414732588,"Thu Nov 25 14:34:53 2021","The main experiment item","yes","red","no","4","diamond",NA,"pinging_target_expectations 4.0.osexp","C:\Users\etp-cp-ping\Desktop\LocalPC-EXP",75,"no","mono","no",18,"no","white","no","yes",1050,NA,100,"psycho",19,0,19,"C:/Users/etp-cp-ping/Desktop/LocalPC-EXP/subject-13.csv","psycho",14,20,20,"Lentiform Loewenfeld","3.3.8","['vert', 'vert', 'vert', 'vert', 'hori', 'hori', 'hori', 'hori']","no",209,"None","yes",0,NA,2,"legacy",NA,1024,2,48000,-16,"experiment",13,"odd","green","no",1,"circle",542164.2646,542189.3609,542189.399500001,NA,548932.276699999,NA,NA,218687.967,1363.68270000094,NA,218687.989800001,612180.127,615237.4131,NA,NA,NA,NA,1363.75950000001,549466.557900001,NA,NA,612180.141000001,549838.1928,612180.0774,"New experiment",19,"[0]","dist_present",56,25,"yes","yes",1680,NA,NA,NA,NA,"NR","NR","lp",NA,"Left",NA,NA,NA,NA,"practice",3,"NR","in"
"21",984.054700000328,27689.7757999976,27689.7757999976,18,18,"y",1,"['5', '8', 'space']","y","#000000","no",616641.571100001,1,"neutral","psycho","psycho","psycho",0,"uniform",1,0,0,0,NA,0,0,NA,0,0,0,0,20,20,NA,NA,NA,NA,0,0,0,NA,20,0,20,73.2296414732588,"Thu Nov 25 14:34:53 2021","The main experiment item","yes","red","no","None","circle",NA,"pinging_target_expectations 4.0.osexp","C:\Users\etp-cp-ping\Desktop\LocalPC-EXP",75,"no","mono","no",18,"no","white","no","yes",1050,NA,100,"psycho",20,0,20,"C:/Users/etp-cp-ping/Desktop/LocalPC-EXP/subject-13.csv","psycho",16,21,21,"Lentiform Loewenfeld","3.3.8","['hori', 'hori', 'vert', 'vert', 'vert', 'hori', 'hori', 'vert']","yes",109,"circles","yes",0,NA,2,"legacy",NA,1024,2,48000,-16,"experiment",13,"odd","green","no",4,"diamond",542164.2646,542189.3609,542189.399500001,NA,548932.276699999,NA,NA,218687.967,1363.68270000094,NA,218687.989800001,615268.0679,618277.3263,NA,NA,NA,NA,1363.75950000001,549466.557900001,NA,NA,615268.0827,549838.1928,615268.0157,"New experiment",19,"[0, 73.34445891354649, 81.36001311085921, 94.52117333948728, 109.92142177412437, 121.93217739296632, 138.34505540665103, 152.51333580266822, 164.46241705488615, 184.60260969406843, 199.14902892109464, 217.730130251055, 235.06096494052406, 251.67125533465148, 269.4212612719925, 284.55020055474006, 302.7807623251201, 318.89449775090435, 336.35394225823615, 363.33816180552725, 385.7805064986263, 406.5318173802405, 431.3124885518184, 458.05475868940493, 474.32991889659456, 501.1546784072302, 525.2830521564671, 551.1367767527892, 570.7960101944558, 587.0408532868368, 609.755861689136, 636.8025041828092, 652.5399582847058, 678.4179936056049, 694.8174220613643, 722.0016253102784, 739.9695647312246, 751.7091339153204, 776.6244479205573, 795.131163597693, 810.7945246853658, 827.4154035307779, 838.9039107401272, 844.6603772294109]","dist_absent",56,59,"yes","no",1680,NA,NA,NA,NA,"NR","NR","lp",NA,NA,NA,NA,NA,NA,"practice",1,"NR","in"
"22",1894.66989999893,29584.4456999965,29584.4456999965,19,19,"y",1,"['5', '8', 'space']","y","#000000","no",619002.6421,1,"neutral","psycho","psycho","psycho",0,"uniform",1,0,0,0,NA,0,0,NA,0,0,0,0,21,21,NA,NA,NA,NA,0,0,0,NA,21,0,21,73.2296414732588,"Thu Nov 25 14:34:53 2021","The main experiment item","yes","green","no","5","diamond",NA,"pinging_target_expectations 4.0.osexp","C:\Users\etp-cp-ping\Desktop\LocalPC-EXP",75,"no","mono","no",18,"no","white","no","yes",1050,NA,100,"psycho",21,0,21,"C:/Users/etp-cp-ping/Desktop/LocalPC-EXP/subject-13.csv","psycho",17,22,22,"Lentiform Loewenfeld","3.3.8","['hori', 'vert', 'vert', 'vert', 'vert', 'hori', 'hori', 'hori']","no",209,"None","yes",0,NA,2,"legacy",NA,1024,2,48000,-16,"experiment",13,"odd","red","no",6,"circle",542164.2646,542189.3609,542189.399500001,NA,548932.276699999,NA,NA,218687.967,1363.68270000094,NA,218687.989800001,618308.0197,622037.3817,NA,NA,NA,NA,1363.75950000001,549466.557900001,NA,NA,618308.033900001,549838.1928,618307.969700001,"New experiment",19,"[0]","dist_present",56,76,"yes","yes",1680,NA,NA,NA,NA,"NR","NR","lp",NA,NA,NA,NA,NA,NA,"practice",4,"NR","in"
"23",1320.07669999986,30904.5223999964,30904.5223999964,20,20,"y",1,"['5', '8', 'space']","y","#000000","no",624013.8336,1,"neutral","psycho","psycho","psycho",0,"uniform",1,0,0,0,NA,0,0,NA,0,0,0,0,22,22,NA,NA,NA,NA,0,0,0,NA,22,0,22,73.2296414732588,"Thu Nov 25 14:34:53 2021","The main experiment item","yes","red","no","6","circle",NA,"pinging_target_expectations 4.0.osexp","C:\Users\etp-cp-ping\Desktop\LocalPC-EXP",75,"no","mono","no",18,"no","white","no","yes",1050,NA,100,"psycho",22,0,22,"C:/Users/etp-cp-ping/Desktop/LocalPC-EXP/subject-13.csv","psycho",18,23,23,"Lentiform Loewenfeld","3.3.8","['vert', 'hori', 'hori', 'hori', 'vert', 'hori', 'vert', 'vert']","no",209,"None","yes",0,NA,2,"legacy",NA,1024,2,48000,-16,"experiment",13,"odd","green","no",0,"diamond",542164.2646,542189.3609,542189.399500001,NA,548932.276699999,NA,NA,218687.967,1363.68270000094,NA,218687.989800001,622068.133500001,625269.4354,NA,NA,NA,NA,1363.75950000001,549466.557900001,NA,NA,622068.148,549838.1928,622068.082900001,"New experiment",19,"[0]","dist_present",56,17,"yes","yes",1680,NA,NA,NA,NA,"NR","NR","lp","Right",NA,"Right",NA,NA,NA,"practice",6,"NR","in"
"24",1599.18149999972,32503.7038999961,32503.7038999961,21,21,"y",1,"['5', '8', 'space']","y","#000000","no",626132.286100001,1,"neutral","psycho","psycho","psycho",0,"uniform",1,0,0,0,NA,0,0,NA,0,0,0,0,23,23,NA,NA,NA,NA,0,0,0,NA,23,0,23,73.2296414732588,"Thu Nov 25 14:34:53 2021","The main experiment item","yes","red","no","2","circle",NA,"pinging_target_expectations 4.0.osexp","C:\Users\etp-cp-ping\Desktop\LocalPC-EXP",75,"no","mono","no",18,"no","white","no","yes",1050,NA,100,"psycho",23,0,23,"C:/Users/etp-cp-ping/Desktop/LocalPC-EXP/subject-13.csv","psycho",19,24,24,"Lentiform Loewenfeld","3.3.8","['hori', 'hori', 'vert', 'vert', 'vert', 'vert', 'hori', 'hori']","yes",109,"diamond","yes",0,NA,2,"legacy",NA,1024,2,48000,-16,"experiment",13,"odd","green","no",3,"diamond",542164.2646,542189.3609,542189.399500001,NA,548932.276699999,NA,NA,218687.967,1363.68270000094,NA,218687.989800001,625299.9526,628757.420600001,NA,NA,NA,NA,1363.75950000001,549466.557900001,NA,NA,625299.9669,549838.1928,625299.9022,"New experiment",19,"[0]","dist_present",56,43,"yes","yes",1680,NA,NA,NA,NA,"NR","NR","lp",NA,NA,NA,NA,NA,NA,"practice",0,"NR","in"
"25",1155.90419999906,33659.6080999952,33659.6080999952,22,22,"y",1,"['5', '8', 'space']","y","#000000","no",629543.844199999,1,"neutral","psycho","psycho","psycho",0,"uniform",1,0,0,0,NA,0,0,NA,0,0,0,0,24,24,NA,NA,NA,NA,0,0,0,NA,24,0,24,73.2296414732588,"Thu Nov 25 14:34:53 2021","The main experiment item","yes","green","no","0","diamond",NA,"pinging_target_expectations 4.0.osexp","C:\Users\etp-cp-ping\Desktop\LocalPC-EXP",75,"no","mono","no",18,"no","white","no","yes",1050,NA,100,"psycho",24,0,24,"C:/Users/etp-cp-ping/Desktop/LocalPC-EXP/subject-13.csv","psycho",20,25,25,"Lentiform Loewenfeld","3.3.8","['vert', 'hori', 'hori', 'hori', 'vert', 'hori', 'vert', 'vert']","yes",109,"diamond","yes",0,NA,2,"legacy",NA,1024,2,48000,-16,"experiment",13,"odd","red","no",2,"circle",542164.2646,542189.3609,542189.399500001,NA,548932.276699999,NA,NA,218687.967,1363.68270000094,NA,218687.989800001,628787.9791,631925.339400001,NA,NA,NA,NA,1363.75950000001,549466.557900001,NA,NA,628787.993400001,549838.1928,628787.928,"New experiment",19,"[0, 75.81925020186148, 76.8503063188395, 76.5520152897523, 80.16483537112062, 78.92306991213795, 78.2588588392212, 75.66900788885103, 74.56600033367666, 90.56323737245512, 103.37336929308559, 123.54762876019441, 136.71760986132017, 155.75839634583704, 167.1158491689456, 184.44779733411565, 207.2987319134656, 223.73952837533733, 240.1711867813488, 254.96715474743016, 276.83756759256346, 292.8928213858041, 311.8096346205297, 329.7643097729043, 352.2237813291292, 369.257223278517, 384.9111964630263, 407.0174383993074, 427.57852651063877, 458.9540620149686, 480.7250648739334, 521.1689254947651, 540.7835246268263, 573.4583512366247, 596.8397156741958, 618.3420847136543, 643.2422776044456, 673.8140721723055, 694.8014104764037, 723.9345619092659, 742.3762361669394, 768.377687529617, 781.0084180202899, 797.7876153305499, 817.6496458325407, 828.8338995374532, 847.6248481885142, 862.5097523990086, 876.3975789568159, 892.8054955713287, 907.658823640159, 921.4293368101416, 933.1575160932421]","dist_present",56,31,"yes","no",1680,NA,NA,NA,NA,"NR","NR","lp",NA,"Left",NA,"Left",NA,NA,"practice",3,"NR","in"
"26",1989.20540000114,35648.8134999963,35648.8134999963,23,23,"y",1,"['5', '8', 'space']","y","#000000","no",633367.9135,1,"neutral","psycho","psycho","psycho",0,"uniform",1,0,0,0,NA,0,0,NA,0,0,0,0,25,25,NA,NA,NA,NA,0,0,0,NA,25,0,25,73.2296414732588,"Thu Nov 25 14:34:53 2021","The main experiment item","yes","green","no","5","circle",NA,"pinging_target_expectations 4.0.osexp","C:\Users\etp-cp-ping\Desktop\LocalPC-EXP",75,"no","mono","no",18,"no","white","no","yes",1050,NA,100,"psycho",25,0,25,"C:/Users/etp-cp-ping/Desktop/LocalPC-EXP/subject-13.csv","psycho",21,26,26,"Lentiform Loewenfeld","3.3.8","['hori', 'hori', 'vert', 'hori', 'vert', 'vert', 'vert', 'hori']","yes",109,"diamond","yes",0,NA,2,"legacy",NA,1024,2,48000,-16,"experiment",13,"odd","red","no",1,"diamond",542164.2646,542189.3609,542189.399500001,NA,548932.276699999,NA,NA,218687.967,1363.68270000094,NA,218687.989800001,631957.7642,636149.398200001,NA,NA,NA,NA,1363.75950000001,549466.557900001,NA,NA,631957.778400001,549838.1928,631957.713600001,"New experiment",19,"[0]","dist_present",56,26,"yes","yes",1680,NA,NA,NA,NA,"NR","NR","lp",NA,NA,NA,NA,NA,NA,"practice",2,"NR","in"
"27",794.829600001336,36443.6430999977,36443.6430999977,24,24,"y",1,"['5', '8', 'space']","y","#000000","no",637306.497699999,1,"neutral","psycho","psycho","psycho",0,"uniform",1,0,0,0,NA,0,0,NA,0,0,0,0,26,26,NA,NA,NA,NA,0,0,0,NA,26,0,26,73.2296414732588,"Thu Nov 25 14:34:53 2021","The main experiment item","yes","green","no","None","diamond",NA,"pinging_target_expectations 4.0.osexp","C:\Users\etp-cp-ping\Desktop\LocalPC-EXP",75,"no","mono","no",18,"no","white","no","yes",1050,NA,100,"psycho",26,0,26,"C:/Users/etp-cp-ping/Desktop/LocalPC-EXP/subject-13.csv","psycho",22,27,27,"Lentiform Loewenfeld","3.3.8","['hori', 'vert', 'vert', 'vert', 'hori', 'vert', 'hori', 'hori']","yes",109,"circles","yes",0,NA,2,"legacy",NA,1024,2,48000,-16,"experiment",13,"odd","red","no",4,"circle",542164.2646,542189.3609,542189.399500001,NA,548932.276699999,NA,NA,218687.967,1363.68270000094,NA,218687.989800001,636180.1149,638885.305,NA,NA,NA,NA,1363.75950000001,549466.557900001,NA,NA,636180.129100001,549838.1928,636180.064100001,"New experiment",19,"[0, 77.14614667485111, 77.12747745337622, 76.06450600303906, 75.16648189186454, 82.59690176485489, 91.06099399010307, 105.70416825520472, 122.31571504900552, 135.8146066262669, 148.38148033381822, 163.86961280237406, 176.1625149121045, 188.9078250167003, 206.0967779700807, 220.7182934168093, 236.101748437481, 255.92654983634154, 272.43810487663035, 290.47222906318314, 301.8831725043801, 316.9425071551581, 335.01295901066015, 348.38972409288476, 367.6487458063328, 384.1131180568813, 403.0718833011185, 419.2956960226579, 437.1707121006111, 459.1004782808613, 483.22593078507924, 517.062625922603, 541.6861603060299, 565.40602628602, 592.1561106209276, 616.2520860964, 630.6827582917166, 654.7389362886428, 674.6218297471462, 696.1025001098475, 714.0336299107734, 736.8371597578396, 748.8612500628567, 769.1778550537443, 787.4469877091099, 802.8245815647721, 821.8790168004274, 831.0891323193774, 849.0576882972343, 856.9872631088876, 870.6109543941734, 876.7261353475031]","dist_absent",56,59,"yes","no",1680,NA,NA,NA,NA,"NR","NR","lp",NA,NA,NA,NA,NA,NA,"practice",1,"NR","in"
"28",1043.27809999988,37486.9211999975,37486.9211999975,25,25,"y",1,"['5', '8', 'space']","y","#000000","no",639413.0264,1,"neutral","psycho","psycho","psycho",0,"uniform",1,0,0,0,NA,0,0,NA,0,0,0,0,27,27,NA,NA,NA,NA,0,0,0,NA,27,0,27,73.2296414732588,"Thu Nov 25 14:34:53 2021","The main experiment item","yes","red","no","4","circle",NA,"pinging_target_expectations 4.0.osexp","C:\Users\etp-cp-ping\Desktop\LocalPC-EXP",75,"no","mono","no",18,"no","white","no","yes",1050,NA,100,"psycho",27,0,27,"C:/Users/etp-cp-ping/Desktop/LocalPC-EXP/subject-13.csv","psycho",23,28,28,"Lentiform Loewenfeld","3.3.8","['hori', 'vert', 'vert', 'hori', 'hori', 'hori', 'vert', 'vert']","yes",109,"circles","yes",0,NA,2,"legacy",NA,1024,2,48000,-16,"experiment",13,"odd","green","no",2,"diamond",542164.2646,542189.3609,542189.399500001,NA,548932.276699999,NA,NA,218687.967,1363.68270000094,NA,218687.989800001,638915.7483,641621.4218,NA,NA,NA,NA,1363.75950000001,549466.557900001,NA,NA,638915.762300001,549838.1928,638915.698700001,"New experiment",19,"[0, 75.60066263221694, 80.07403564253657, 82.77548954806714, 81.73934376923302, 77.65957446983941, 78.05618849272844, 77.43125408313432, 77.20318582711316, 77.13605221787672, 90.75262142714439, 107.38514187861492, 120.85106853727798, 130.75818667046588, 147.95206556873507, 163.91246156455918, 181.70840342293437, 199.8535749026466, 220.6952301574708, 232.60339128903615, 256.0031088640285, 272.53250435082964, 290.4930879437016, 311.6001717014856, 329.1651771973993, 350.991306775028, 370.6049109226698, 398.6477141537375, 416.80822196656095, 438.4370718491765, 457.21849179389324, 491.5598972038542, 522.3747084519642, 555.1610889508207, 584.167181956167, 610.0982051896141, 633.0333719481146, 660.2755826630557, 683.8653618206928, 702.4136957662486, 725.9022490297748, 736.075232964666, 758.8090998400058, 770.244762757701, 786.1809044218398, 794.435156240398, 812.5456790119297, 820.661471009819, 837.2615373765927, 854.5196894417093, 864.2475183186372, 873.7500632711893, 881.4159081858731, 904.4494725189708]","dist_present",56,35,"yes","no",1680,NA,NA,NA,NA,"NR","NR","lp",NA,"Left",NA,"Left",NA,NA,"practice",4,"NR","in"
"29",1413.97839999991,38900.8995999974,38900.8995999974,26,26,"y",1,"['5', '8', 'space']","y","#000000","no",642370.104900001,1,"neutral","psycho","psycho","psycho",0,"uniform",1,0,0,0,NA,0,0,NA,0,0,0,0,28,28,NA,NA,NA,NA,0,0,0,NA,28,0,28,73.2296414732588,"Thu Nov 25 14:34:53 2021","The main experiment item","yes","green","no","5","diamond",NA,"pinging_target_expectations 4.0.osexp","C:\Users\etp-cp-ping\Desktop\LocalPC-EXP",75,"no","mono","no",18,"no","white","no","yes",1050,NA,100,"psycho",28,0,28,"C:/Users/etp-cp-ping/Desktop/LocalPC-EXP/subject-13.csv","psycho",24,29,29,"Lentiform Loewenfeld","3.3.8","['vert', 'hori', 'hori', 'vert', 'vert', 'hori', 'vert', 'hori']","yes",109,"diamond","yes",0,NA,2,"legacy",NA,1024,2,48000,-16,"experiment",13,"odd","red","no",7,"circle",542164.2646,542189.3609,542189.399500001,NA,548932.276699999,NA,NA,218687.967,1363.68270000094,NA,218687.989800001,641652.151800001,645029.329700001,NA,NA,NA,NA,1363.75950000001,549466.557900001,NA,NA,641652.1663,549838.1928,641652.1006,"New experiment",19,"[0]","dist_present",56,86,"yes","yes",1680,NA,NA,NA,NA,"NR","NR","lp",NA,NA,NA,NA,NA,NA,"practice",2,"NR","in"
"30",1910.00499999966,40810.9045999971,40810.9045999971,27,27,"y",1,"['5', '8', 'space']","y","#000000","no",646468.7029,1,"neutral","psycho","psycho","psycho",0,"uniform",1,0,0,0,NA,0,0,NA,0,0,0,0,29,29,NA,NA,NA,NA,0,0,0,NA,29,0,29,73.2296414732588,"Thu Nov 25 14:34:53 2021","The main experiment item","yes","green","no","None","diamond",NA,"pinging_target_expectations 4.0.osexp","C:\Users\etp-cp-ping\Desktop\LocalPC-EXP",75,"no","mono","no",18,"no","white","no","yes",1050,NA,100,"psycho",29,0,29,"C:/Users/etp-cp-ping/Desktop/LocalPC-EXP/subject-13.csv","psycho",26,30,30,"Lentiform Loewenfeld","3.3.8","['vert', 'vert', 'hori', 'vert', 'hori', 'hori', 'vert', 'hori']","no",209,"None","yes",0,NA,2,"legacy",NA,1024,2,48000,-16,"experiment",13,"odd","red","no",7,"circle",542164.2646,542189.3609,542189.399500001,NA,548932.276699999,NA,NA,218687.967,1363.68270000094,NA,218687.989800001,645061.4179,648741.336900001,NA,NA,NA,NA,1363.75950000001,549466.557900001,NA,NA,645061.4319,549838.1928,645061.368000001,"New experiment",19,"[0]","dist_absent",56,89,"yes","yes",1680,NA,NA,NA,NA,"R","NR","lp",NA,"Right",NA,NA,NA,NA,"practice",7,"NR","in"
"31",1779.19789999933,42590.1024999964,42590.1024999964,28,28,"y",1,"['5', '8', 'space']","y","#000000","no",649523.758400001,1,"neutral","psycho","psycho","psycho",0,"uniform",1,0,0,0,NA,0,0,NA,0,0,0,0,30,30,NA,NA,NA,NA,0,0,0,NA,30,0,30,73.2296414732588,"Thu Nov 25 14:34:53 2021","The main experiment item","yes","red","no","2","diamond",NA,"pinging_target_expectations 4.0.osexp","C:\Users\etp-cp-ping\Desktop\LocalPC-EXP",75,"no","mono","no",18,"no","white","no","yes",1050,NA,100,"psycho",30,0,30,"C:/Users/etp-cp-ping/Desktop/LocalPC-EXP/subject-13.csv","psycho",28,31,31,"Lentiform Loewenfeld","3.3.8","['hori', 'vert', 'hori', 'hori', 'vert', 'vert', 'hori', 'vert']","no",209,"None","yes",0,NA,2,"legacy",NA,1024,2,48000,-16,"experiment",13,"odd","green","no",1,"circle",542164.2646,542189.3609,542189.399500001,NA,548932.276699999,NA,NA,218687.967,1363.68270000094,NA,218687.989800001,648771.766600001,652597.4062,NA,NA,NA,NA,1363.75950000001,549466.557900001,NA,NA,648771.7806,549838.1928,648771.715700001,"New experiment",19,"[0]","dist_present",56,23,"yes","yes",1680,NA,NA,NA,NA,"NR","NR","lp",NA,NA,NA,NA,NA,NA,"practice",7,"R","in"
"32",848.92190000019,43439.0243999966,43439.0243999966,29,29,"y",1,"['5', '8', 'space']","y","#000000","no",649523.758400001,1,"neutral","psycho","psycho","psycho",0,"uniform",1,0,0,0,NA,0,0,NA,0,0,0,0,31,31,NA,NA,NA,NA,0,0,0,NA,31,0,31,73.2296414732588,"Thu Nov 25 14:34:53 2021","The main experiment item","yes","red","no","7","circle",NA,"pinging_target_expectations 4.0.osexp","C:\Users\etp-cp-ping\Desktop\LocalPC-EXP",75,"no","mono","no",18,"no","white","no","yes",1050,NA,100,"psycho",31,0,31,"C:/Users/etp-cp-ping/Desktop/LocalPC-EXP/subject-13.csv","psycho",28,32,32,"Lentiform Loewenfeld","3.3.8","['hori', 'vert', 'hori', 'vert', 'hori', 'hori', 'vert', 'vert']","no",209,"None","yes",0,NA,2,"legacy",NA,1024,2,48000,-16,"experiment",13,"odd","green","no",5,"diamond",542164.2646,542189.3609,542189.399500001,NA,548932.276699999,NA,NA,218687.967,1363.68270000094,NA,218687.989800001,652630.926100001,655205.4371,NA,NA,NA,NA,1363.75950000001,549466.557900001,NA,NA,652630.940500001,549838.1928,652630.8725,"New experiment",19,"[0]","dist_present",56,68,"yes","yes",1680,NA,NA,NA,NA,"NR","NR","lp",NA,NA,NA,NA,NA,NA,"practice",1,"NR","in"
"33",708.345600000001,44147.3699999966,44147.3699999966,30,30,"y",1,"['5', '8', 'space']","y","#000000","no",655827.866,1,"neutral","psycho","psycho","psycho",0,"uniform",1,0,0,0,NA,0,0,NA,0,0,0,0,32,32,NA,NA,NA,NA,0,0,0,NA,32,0,32,73.2296414732588,"Thu Nov 25 14:34:53 2021","The main experiment item","yes","red","no","None","diamond",NA,"pinging_target_expectations 4.0.osexp","C:\Users\etp-cp-ping\Desktop\LocalPC-EXP",75,"no","mono","no",18,"no","white","no","yes",1050,NA,100,"psycho",32,0,32,"C:/Users/etp-cp-ping/Desktop/LocalPC-EXP/subject-13.csv","psycho",29,33,33,"Lentiform Loewenfeld","3.3.8","['hori', 'vert', 'vert', 'hori', 'hori', 'hori', 'vert', 'vert']","no",209,"None","yes",0,NA,2,"legacy",NA,1024,2,48000,-16,"experiment",13,"odd","green","no",0,"circle",542164.2646,542189.3609,542189.399500001,NA,548932.276699999,NA,NA,218687.967,1363.68270000094,NA,218687.989800001,655236.317299999,657733.318800001,NA,NA,NA,NA,1363.75950000001,549466.557900001,NA,NA,655236.331600001,549838.1928,655236.2665,"New experiment",19,"[0, 85.88574413092032, 85.89395030060511, 85.91071450464956, 85.14087899548419, 85.24816713572204, 85.25584834916002, 85.51802020501559, 87.33320998010915, 86.34310951683089, 76.85998795878147, 88.39015804411537, 106.8707754327756, 119.61357095840953, 135.10622995103807, 144.8259928604289, 155.38043991570734, 171.9490979196773, 183.0510883331267, 206.57497092649402, 217.44406803168548, 235.20010030835178, 249.19872268668044, 267.09689681843975, 278.96592690510545, 293.2153918255635, 307.67261251086023, 320.340442333062, 340.0612281151561, 354.1234023429041, 374.94238513132797, 389.9006283657414, 412.9061255191203, 431.49192929461316, 447.8341048085639, 469.0918202835495, 491.66053661460455, 524.6366365543297, 550.1011328095594, 569.8934270551682, 592.2670399130644, 609.6637466681674, 635.8363248985933, 651.4109140027045, 664.8279640274847, 685.3416559611046, 707.6037558447857, 721.2895227540508, 737.8189325349628, 749.2443572526939, 766.9036391096929, 778.847544311641, 790.114611210081, 803.8940538463839, 811.4627376050516, 830.2313063631309, 840.9188325861462, 849.4180035017228, 864.2860656469506, 871.4289437590414, 888.4302278874924, 892.8554276300493, 904.4401591128162]","dist_absent",56,19,"yes","no",1680,NA,NA,NA,NA,"NR","NR","lp",NA,NA,NA,NA,NA,NA,"practice",5,"NR","in"
"34",1153.6768000006,45301.0467999972,45301.0467999972,31,31,"y",1,"['5', '8', 'space']","y","#000000","no",658454.4081,1,"neutral","psycho","psycho","psycho",0,"uniform",1,0,0,0,NA,0,0,NA,0,0,0,0,33,33,NA,NA,NA,NA,0,0,0,NA,33,0,33,73.2296414732588,"Thu Nov 25 14:34:53 2021","The main experiment item","yes","green","no","5","circle",NA,"pinging_target_expectations 4.0.osexp","C:\Users\etp-cp-ping\Desktop\LocalPC-EXP",75,"no","mono","no",18,"no","white","no","yes",1050,NA,100,"psycho",33,0,33,"C:/Users/etp-cp-ping/Desktop/LocalPC-EXP/subject-13.csv","psycho",30,34,34,"Lentiform Loewenfeld","3.3.8","['vert', 'hori', 'vert', 'hori', 'vert', 'hori', 'hori', 'vert']","yes",109,"circles","yes",0,NA,2,"legacy",NA,1024,2,48000,-16,"experiment",13,"odd","red","no",4,"diamond",542164.2646,542189.3609,542189.399500001,NA,548932.276699999,NA,NA,218687.967,1363.68270000094,NA,218687.989800001,657763.903999999,660677.4045,NA,NA,NA,NA,1363.75950000001,549466.557900001,NA,NA,657763.9181,549838.1928,657763.8534,"New experiment",19,"[0, 79.78574118895872, 88.17080980494795, 104.79132081413013, 117.98916736600611, 133.8223782697888, 148.58827352552817, 159.9681318513422, 176.1324935542709, 198.09411401607267, 215.51487085142458, 232.95262953008444, 249.54769071054452, 262.11330697498005, 284.56883608488073, 302.18263234106354, 323.6082362688796, 341.42316273897967, 365.7902976608227, 388.4964410040996, 412.0336070396192, 435.35801128860055, 461.9961370503163, 487.8154124247427, 521.5759742164923, 548.721271835747, 592.8287671232789, 615.1028996661753, 642.400789063232, 677.3958572103337, 703.8120330536386, 733.2767399345912, 758.5443182127668, 782.4136954109397, 802.7435585514838, 824.1136214352723, 846.0188074756614, 863.6583834456186, 884.8598362092897, 904.3682906141512, 933.7722027669057]","dist_present",56,56,"yes","no",1680,NA,NA,NA,NA,"NR","NR","lp","Right",NA,NA,NA,NA,NA,"practice",0,"NR","in"
"35",889.713399999891,46190.7601999971,46190.7601999971,32,32,"y",1,"['5', '8', 'space']","y","#000000","no",661199.4818,1,"neutral","psycho","psycho","psycho",0,"uniform",1,0,0,0,NA,0,0,NA,0,0,0,0,34,34,NA,NA,NA,NA,0,0,0,NA,34,0,34,73.2296414732588,"Thu Nov 25 14:34:53 2021","The main experiment item","yes","red","no","None","diamond",NA,"pinging_target_expectations 4.0.osexp","C:\Users\etp-cp-ping\Desktop\LocalPC-EXP",75,"no","mono","no",18,"no","white","no","yes",1050,NA,100,"psycho",34,0,34,"C:/Users/etp-cp-ping/Desktop/LocalPC-EXP/subject-13.csv","psycho",31,35,35,"Lentiform Loewenfeld","3.3.8","['vert', 'hori', 'vert', 'hori', 'vert', 'vert', 'hori', 'hori']","yes",109,"diamond","yes",0,NA,2,"legacy",NA,1024,2,48000,-16,"experiment",13,"odd","green","no",6,"circle",542164.2646,542189.3609,542189.399500001,NA,548932.276699999,NA,NA,218687.967,1363.68270000094,NA,218687.989800001,660708.014600001,663685.2865,NA,NA,NA,NA,1363.75950000001,549466.557900001,NA,NA,660708.0288,549838.1928,660707.9634,"New experiment",19,"[0]","dist_absent",56,79,"yes","no",1680,NA,NA,NA,NA,"NR","NR","lp",NA,"Right",NA,"Right",NA,NA,"practice",4,"NR","in"
"36",1059.70279999939,47250.4629999965,47250.4629999965,33,33,"y",1,"['5', '8', 'space']","y","#000000","no",664327.558700001,1,"neutral","psycho","psycho","psycho",0,"uniform",1,0,0,0,NA,0,0,NA,0,0,0,0,35,35,NA,NA,NA,NA,0,0,0,NA,35,0,35,73.2296414732588,"Thu Nov 25 14:34:53 2021","The main experiment item","yes","red","no","4","circle",NA,"pinging_target_expectations 4.0.osexp","C:\Users\etp-cp-ping\Desktop\LocalPC-EXP",75,"no","mono","no",18,"no","white","no","yes",1050,NA,100,"psycho",35,0,35,"C:/Users/etp-cp-ping/Desktop/LocalPC-EXP/subject-13.csv","psycho",32,36,36,"Lentiform Loewenfeld","3.3.8","['vert', 'hori', 'hori', 'vert', 'hori', 'hori', 'vert', 'vert']","no",209,"None","yes",0,NA,2,"legacy",NA,1024,2,48000,-16,"experiment",13,"odd","green","no",0,"diamond",542164.2646,542189.3609,542189.399500001,NA,548932.276699999,NA,NA,218687.967,1363.68270000094,NA,218687.989800001,663715.7389,666501.4311,NA,NA,NA,NA,1363.75950000001,549466.557900001,NA,NA,663715.753300001,549838.1928,663715.6889,"New experiment",19,"[0, 82.06636504369207, 85.55617488690886, 102.56436658017702, 101.989450485107, 101.08540216210268, 101.15202926734906, 106.3034454906989, 107.1552703857152, 107.65970118175584, 103.22790107595456, 97.84334206987708, 96.58536651534041, 86.59658946310333, 80.99048238716253, 77.53275040429176, 73.59731841800695, 87.20746454609687, 94.9960525495665, 107.74808033519072, 116.46203654853367, 132.700321853122, 144.87408325853178, 157.1257212406383, 167.20278652370078, 182.02857625450676, 197.56281384673497, 208.99113079617754, 226.6008119385094, 242.47593243969658, 256.9842942339287, 275.5779641520219, 287.96184875412195, 302.47978990468414, 327.07697192924917, 345.88797484529357, 363.65149643494686, 379.40864600916075, 399.2293646307807, 417.53988086094915, 440.0236653431409, 464.03024556469256, 485.29846581547395, 518.3556286083543, 544.0079288017058, 573.7078490588895, 600.8816375735319, 622.3588193317421, 650.4296843451599, 674.3104224033018, 698.0042197970531, 718.2877923449884, 739.1793783308703, 754.1718235090735, 775.8086970692228, 792.491889540704, 811.3163210714515, 828.5754754107495, 835.7948312833719, 847.1089452324157, 859.1015612140812, 875.514259191064]","dist_present",56,15,"yes","no",1680,NA,NA,NA,NA,"NR","NR","lp",NA,NA,NA,NA,NA,NA,"practice",6,"NR","in"
"37",782.143299998948,48032.6062999954,48032.6062999954,33,33,"y",1,"['5', '8', 'space']","y","#000000","no",666969.083,1,"neutral","psycho","psycho","psycho",0,"uniform",0,0,0,0,NA,0,0,NA,0,0,0,0,36,36,NA,NA,NA,NA,0,0,0,NA,36,0,36,73.2296414732588,"Thu Nov 25 14:34:53 2021","The main experiment item","yes","red","no","6","diamond",NA,"pinging_target_expectations 4.0.osexp","C:\Users\etp-cp-ping\Desktop\LocalPC-EXP",75,"no","mono","no",18,"no","white","no","yes",1050,NA,100,"psycho",36,0,36,"C:/Users/etp-cp-ping/Desktop/LocalPC-EXP/subject-13.csv","psycho",33,37,37,"Lentiform Loewenfeld","3.3.8","['vert', 'vert', 'hori', 'vert', 'hori', 'hori', 'hori', 'vert']","yes",109,"diamond","yes",0,NA,2,"legacy",NA,1024,2,48000,-16,"experiment",13,"odd","green","no",7,"circle",542164.2646,542189.3609,542189.399500001,NA,548932.276699999,NA,NA,218687.967,1363.68270000094,NA,218687.989800001,666531.984900001,669045.367799999,NA,NA,NA,NA,1363.75950000001,549466.557900001,NA,NA,666531.9989,549838.1928,666531.9332,"New experiment",19,"[0, 74.74757031220688, 74.64802985890991, 75.40723274814299, 74.42990598234726, 73.65275545579246, 73.89350870450188, 73.95303351297815, 81.71737939517604, 95.0403246807916, 111.81722616784609, 126.0807482841501, 143.89789474251776, 161.7662988446445, 180.70809206046476, 194.5344419918861, 209.3709475470715, 227.56252943902845, 246.9280818229748, 266.4505630667628, 279.6485881931433, 298.2998493497291, 319.9438184476937, 341.36682840552226, 361.7146551536584, 383.70993927387246, 404.7573659134949, 425.48646923314544, 445.4011683763484, 476.47381926176666, 494.0099909586778, 532.3914927616157, 556.4122446935568, 588.3418535558309, 614.0971014424348, 641.5704853946235, 673.7173183240625, 689.6062461340052, 716.6324917436127, 736.5783120717401, 755.5929840262997, 770.9694435185844, 789.1684067911895, 807.0838226977122, 821.1144827276635, 834.3865010267743, 842.8619244812492, 855.275729063213, 864.7739911765572, 882.6254840213647, 905.176862830095, 918.5138200057233, 73.32045045272153, 73.59111393899398, 73.81392811582015, 73.91790661907241, 73.38427725635952, 76.04504537299873, 73.27708038844209, 73.36165543247553]","dist_present",56,87,"yes","yes",1680,NA,NA,NA,NA,"NR","NR","lp",NA,NA,NA,NA,NA,NA,"practice",0,"NR","in"
"38",1188.59379999957,49221.200099995,49221.200099995,34,34,"y",1,"['5', '8', 'space']","y","#000000","no",666969.083,1,"neutral","psycho","psycho","psycho",0,"uniform",1,0,0,0,NA,0,0,NA,0,0,0,0,37,37,NA,NA,NA,NA,0,0,0,NA,37,0,37,73.2296414732588,"Thu Nov 25 14:34:53 2021","The main experiment item","yes","green","no","None","diamond",NA,"pinging_target_expectations 4.0.osexp","C:\Users\etp-cp-ping\Desktop\LocalPC-EXP",75,"no","mono","no",18,"no","white","no","yes",1050,NA,100,"psycho",37,0,37,"C:/Users/etp-cp-ping/Desktop/LocalPC-EXP/subject-13.csv","psycho",33,38,38,"Lentiform Loewenfeld","3.3.8","['vert', 'hori', 'hori', 'vert', 'hori', 'hori', 'vert', 'vert']","no",209,"None","yes",0,NA,2,"legacy",NA,1024,2,48000,-16,"experiment",13,"odd","red","no",3,"circle",542164.2646,542189.3609,542189.399500001,NA,548932.276699999,NA,NA,218687.967,1363.68270000094,NA,218687.989800001,669076.0844,672149.3813,NA,NA,NA,NA,1363.75950000001,549466.557900001,NA,NA,669076.098900001,549838.1928,669076.0336,"New experiment",19,"[0]","dist_absent",56,49,"yes","yes",1680,NA,NA,NA,NA,"NR","NR","lp",NA,"Left",NA,NA,NA,NA,"practice",7,"NR","in"
"39",836.933100001304,50058.1331999963,50058.1331999963,35,35,"y",1,"['5', '8', 'space']","y","#000000","no",666969.083,1,"neutral","psycho","psycho","psycho",0,"uniform",1,0,0,0,NA,0,0,NA,0,0,0,0,38,38,NA,NA,NA,NA,0,0,0,NA,38,0,38,73.2296414732588,"Thu Nov 25 14:34:53 2021","The main experiment item","yes","green","no","None","diamond",NA,"pinging_target_expectations 4.0.osexp","C:\Users\etp-cp-ping\Desktop\LocalPC-EXP",75,"no","mono","no",18,"no","white","no","yes",1050,NA,100,"psycho",38,0,38,"C:/Users/etp-cp-ping/Desktop/LocalPC-EXP/subject-13.csv","psycho",33,39,39,"Lentiform Loewenfeld","3.3.8","['vert', 'hori', 'vert', 'vert', 'hori', 'hori', 'vert', 'hori']","no",209,"None","yes",0,NA,2,"legacy",NA,1024,2,48000,-16,"experiment",13,"odd","red","no",3,"circle",542164.2646,542189.3609,542189.399500001,NA,548932.276699999,NA,NA,218687.967,1363.68270000094,NA,218687.989800001,672181.318500001,674805.278100001,NA,NA,NA,NA,1363.75950000001,549466.557900001,NA,NA,672181.332399999,549838.1928,672181.2677,"New experiment",19,"[0, 73.37574531137656, 73.4359621846976, 73.77508584214742, 73.34985536276447, 74.28652885376172, 76.28297124299961, 76.43766733296694, 73.28225130912493, 73.30900592097215, 73.54516104333972]","dist_absent",56,49,"yes","yes",1680,NA,NA,NA,NA,"R","R","lp",NA,"Left",NA,NA,NA,NA,"practice",3,"NR","in"
"40",1233.38270000031,51291.5158999966,51291.5158999966,36,36,"y",1,"['5', '8', 'space']","y","#000000","no",675288.751100001,1,"neutral","psycho","psycho","psycho",0,"uniform",1,0,0,0,NA,0,0,NA,0,0,0,0,39,39,NA,NA,NA,NA,0,0,0,NA,39,0,39,73.2296414732588,"Thu Nov 25 14:34:53 2021","The main experiment item","yes","green","no","6","circle",NA,"pinging_target_expectations 4.0.osexp","C:\Users\etp-cp-ping\Desktop\LocalPC-EXP",75,"no","mono","no",18,"no","white","no","yes",1050,NA,100,"psycho",39,0,39,"C:/Users/etp-cp-ping/Desktop/LocalPC-EXP/subject-13.csv","psycho",34,40,40,"Lentiform Loewenfeld","3.3.8","['vert', 'hori', 'hori', 'vert', 'vert', 'hori', 'hori', 'vert']","no",209,"None","yes",0,NA,2,"legacy",NA,1024,2,48000,-16,"experiment",13,"odd","red","no",4,"diamond",542164.2646,542189.3609,542189.399500001,NA,548932.276699999,NA,NA,218687.967,1363.68270000094,NA,218687.989800001,674836.311900001,677749.3075,NA,NA,NA,NA,1363.75950000001,549466.557900001,NA,NA,674836.326300001,549838.1928,674836.261300001,"New experiment",19,"[0]","dist_present",56,57,"yes","yes",1680,NA,NA,NA,NA,"NR","NR","lp","Right",NA,"Right",NA,NA,NA,"practice",3,"R","in"
"41",1564.73439999903,52856.2502999956,52856.2502999956,37,37,"y",1,"['5', '8', 'space']","y","#000000","no",678405.3363,1,"neutral","psycho","psycho","psycho",0,"uniform",1,0,0,0,NA,0,0,NA,0,0,0,0,40,40,NA,NA,NA,NA,0,0,0,NA,40,0,40,73.2296414732588,"Thu Nov 25 14:34:53 2021","The main experiment item","yes","red","no","5","circle",NA,"pinging_target_expectations 4.0.osexp","C:\Users\etp-cp-ping\Desktop\LocalPC-EXP",75,"no","mono","no",18,"no","white","no","yes",1050,NA,100,"psycho",40,0,40,"C:/Users/etp-cp-ping/Desktop/LocalPC-EXP/subject-13.csv","psycho",36,41,41,"Lentiform Loewenfeld","3.3.8","['hori', 'hori', 'vert', 'vert', 'vert', 'hori', 'hori', 'vert']","no",209,"None","yes",0,NA,2,"legacy",NA,1024,2,48000,-16,"experiment",13,"odd","green","no",2,"diamond",542164.2646,542189.3609,542189.399500001,NA,548932.276699999,NA,NA,218687.967,1363.68270000094,NA,218687.989800001,677781.3843,681237.368600001,NA,NA,NA,NA,1363.75950000001,549466.557900001,NA,NA,677781.398900001,549838.1928,677781.334200001,"New experiment",19,"[0, 76.14104334356017, 77.54687268600546, 74.34949101349376, 84.0744820108445, 99.70212211531943, 112.15795038677233, 126.31213608619262, 144.9692398339978, 154.5062438058744, 174.18453765814084, 188.12382123021797, 207.30426886028192, 224.37082981631443, 241.99835450677256, 256.3929914400382, 276.47361998720396, 295.97635176761133, 318.363221207595, 341.2606242908892, 364.5237107121934, 386.6294502672617, 412.5386027776533, 438.69369975205893, 468.25028575002557, 500.21538716793833, 532.7648602785819, 559.5496470071458, 589.8427060317755, 619.3990558581372, 647.3549773533097, 668.9003018853451, 696.8364403814968, 717.2825727255214, 739.4775501710862, 760.4563461096117, 789.2620514532932, 810.2821563115621, 832.4675808574839]","dist_present",56,36,"yes","no",1680,NA,NA,NA,NA,"NR","NR","lp",NA,NA,NA,NA,NA,NA,"practice",4,"NR","in"
"42",2000.02719999978,54856.2774999954,54856.2774999954,37,37,"y",1,"['5', '8', 'space']","y","#000000","no",681683.3897,1,"neutral","psycho","psycho","psycho",0,"uniform",0,0,0,0,NA,0,0,NA,0,0,0,0,41,41,NA,NA,NA,NA,0,0,0,NA,41,0,41,73.2296414732588,"Thu Nov 25 14:34:53 2021","The main experiment item","yes","green","no","0","circle",NA,"pinging_target_expectations 4.0.osexp","C:\Users\etp-cp-ping\Desktop\LocalPC-EXP",75,"no","mono","no",18,"no","white","no","yes",1050,NA,100,"psycho",41,0,41,"C:/Users/etp-cp-ping/Desktop/LocalPC-EXP/subject-13.csv","psycho",37,42,42,"Lentiform Loewenfeld","3.3.8","['vert', 'hori', 'hori', 'vert', 'hori', 'vert', 'hori', 'vert']","yes",109,"circles","yes",0,NA,2,"legacy",NA,1024,2,48000,-16,"experiment",13,"odd","red","no",7,"diamond",542164.2646,542189.3609,542189.399500001,NA,548932.276699999,NA,NA,218687.967,1363.68270000094,NA,218687.989800001,681269.957100001,685002.032599999,NA,NA,NA,NA,1363.75950000001,549466.557900001,NA,NA,681269.9715,549838.1928,681269.907100001,"New experiment",19,"[0, 73.9346180856109, 80.35084192372945, 87.58448120332962, 98.54200426216327, 112.86923450028482, 120.10702629785663, 137.15187897099182, 148.45984286617022, 159.4344029690517, 169.23903553099586, 185.60010966593893, 197.90945333346409, 210.14254085745583, 224.46311436285785, 235.5047497364706, 253.08972304334483, 269.6581090091575, 281.1181022316857, 298.0259373994044, 310.51444973800227, 326.4562590901296, 349.3259665879677, 366.10974042449584, 385.5323967646284, 401.8667416743585, 420.11772064122397, 438.65034521687886, 463.89560777673995, 484.07993626803614, 507.7114118254135, 530.5515384081247, 563.6751741847318, 578.4911567559395, 596.4736276782297, 617.4547818954421, 634.7751923817468, 650.3092772663127, 664.5213930538085, 684.2060088285489, 693.7994497878185, 714.5499905374371, 720.5985022926083, 737.9172585188159, 746.9715571998893, 759.8867312604581, 763.3076050977089, 779.0010693477412, 787.1852854121046, 799.2365211795016, 807.6329180451099, 813.4736202377768, 821.5218736537722, 825.5441620625921, 842.050504695828]","dist_present",56,81,"yes","no",1680,NA,NA,NA,NA,"NR","NR","lp",NA,"Right",NA,NA,NA,NA,"practice",2,"NR","in"
"43",1008.48840000073,55864.7658999962,55864.7658999962,38,38,"y",1,"['5', '8', 'space']","y","#000000","no",681683.3897,1,"neutral","psycho","psycho","psycho",0,"uniform",1,0,0,0,NA,0,0,NA,0,0,0,0,42,42,NA,NA,NA,NA,0,0,0,NA,42,0,42,73.2296414732588,"Thu Nov 25 14:34:53 2021","The main experiment item","yes","green","no","None","diamond",NA,"pinging_target_expectations 4.0.osexp","C:\Users\etp-cp-ping\Desktop\LocalPC-EXP",75,"no","mono","no",18,"no","white","no","yes",1050,NA,100,"psycho",42,0,42,"C:/Users/etp-cp-ping/Desktop/LocalPC-EXP/subject-13.csv","psycho",37,43,43,"Lentiform Loewenfeld","3.3.8","['hori', 'hori', 'vert', 'vert', 'vert', 'hori', 'hori', 'vert']","yes",109,"circles","yes",0,NA,2,"legacy",NA,1024,2,48000,-16,"experiment",13,"odd","red","no",3,"circle",542164.2646,542189.3609,542189.399500001,NA,548932.276699999,NA,NA,218687.967,1363.68270000094,NA,218687.989800001,685032.353099999,687941.349000001,NA,NA,NA,NA,1363.75950000001,549466.557900001,NA,NA,685032.367600001,549838.1928,685032.303,"New experiment",19,"[0]","dist_absent",56,49,"yes","yes",1680,NA,NA,NA,NA,"NR","NR","lp",NA,"Left",NA,NA,NA,NA,"practice",7,"NR","in"
"44",1356.75180000009,57221.5176999962,57221.5176999962,39,39,"y",1,"['5', '8', 'space']","y","#000000","no",688412.015899999,1,"neutral","psycho","psycho","psycho",0,"uniform",1,0,0,0,NA,0,0,NA,0,0,0,0,43,43,NA,NA,NA,NA,0,0,0,NA,43,0,43,73.2296414732588,"Thu Nov 25 14:34:53 2021","The main experiment item","yes","green","no","1","circle",NA,"pinging_target_expectations 4.0.osexp","C:\Users\etp-cp-ping\Desktop\LocalPC-EXP",75,"no","mono","no",18,"no","white","no","yes",1050,NA,100,"psycho",43,0,43,"C:/Users/etp-cp-ping/Desktop/LocalPC-EXP/subject-13.csv","psycho",38,44,44,"Lentiform Loewenfeld","3.3.8","['vert', 'vert', 'vert', 'vert', 'hori', 'hori', 'hori', 'hori']","no",209,"None","yes",0,NA,2,"legacy",NA,1024,2,48000,-16,"experiment",13,"odd","red","no",6,"diamond",542164.2646,542189.3609,542189.399500001,NA,548932.276699999,NA,NA,218687.967,1363.68270000094,NA,218687.989800001,687973.8217,691221.358799999,NA,NA,NA,NA,1363.75950000001,549466.557900001,NA,NA,687973.836000001,549838.1928,687973.773,"New experiment",19,"[0]","dist_present",56,72,"yes","yes",1680,NA,NA,NA,NA,"NR","NR","lp",NA,NA,NA,NA,NA,NA,"practice",3,"NR","in"
"45",1387.66749999928,58609.1851999955,58609.1851999955,39,39,"y",1,"['5', '8', 'space']","y","#000000","no",692023.599600001,1,"neutral","psycho","psycho","psycho",0,"uniform",0,0,0,0,NA,0,0,NA,0,0,0,0,44,44,NA,NA,NA,NA,0,0,0,NA,44,0,44,73.2296414732588,"Thu Nov 25 14:34:53 2021","The main experiment item","yes","green","no","3","circle",NA,"pinging_target_expectations 4.0.osexp","C:\Users\etp-cp-ping\Desktop\LocalPC-EXP",75,"no","mono","no",18,"no","white","no","yes",1050,NA,100,"psycho",44,0,44,"C:/Users/etp-cp-ping/Desktop/LocalPC-EXP/subject-13.csv","psycho",39,45,45,"Lentiform Loewenfeld","3.3.8","['vert', 'hori', 'vert', 'hori', 'vert', 'hori', 'hori', 'vert']","yes",109,"circles","yes",0,NA,2,"legacy",NA,1024,2,48000,-16,"experiment",13,"odd","red","no",0,"diamond",542164.2646,542189.3609,542189.399500001,NA,548932.276699999,NA,NA,218687.967,1363.68270000094,NA,218687.989800001,691254.279500001,694581.3647,NA,NA,NA,NA,1363.75950000001,549466.557900001,NA,NA,691254.293800001,549838.1928,691254.226500001,"New experiment",19,"[0]","dist_present",56,14,"yes","yes",1680,NA,NA,NA,NA,"NR","NR","lp","Left",NA,NA,NA,NA,NA,"practice",6,"NR","in"
"46",1187.00859999994,59796.1937999955,59796.1937999955,40,40,"y",1,"['5', '8', 'space']","y","#000000","no",692023.599600001,1,"neutral","psycho","psycho","psycho",0,"uniform",1,0,0,0,NA,0,0,NA,0,0,0,0,45,45,NA,NA,NA,NA,0,0,0,NA,45,0,45,73.2296414732588,"Thu Nov 25 14:34:53 2021","The main experiment item","yes","green","no","1","circle",NA,"pinging_target_expectations 4.0.osexp","C:\Users\etp-cp-ping\Desktop\LocalPC-EXP",75,"no","mono","no",18,"no","white","no","yes",1050,NA,100,"psycho",45,0,45,"C:/Users/etp-cp-ping/Desktop/LocalPC-EXP/subject-13.csv","psycho",39,46,46,"Lentiform Loewenfeld","3.3.8","['hori', 'vert', 'hori', 'hori', 'vert', 'hori', 'vert', 'vert']","yes",109,"circles","yes",0,NA,2,"legacy",NA,1024,2,48000,-16,"experiment",13,"odd","red","no",6,"diamond",542164.2646,542189.3609,542189.399500001,NA,548932.276699999,NA,NA,218687.967,1363.68270000094,NA,218687.989800001,694611.900899999,697621.3082,NA,NA,NA,NA,1363.75950000001,549466.557900001,NA,NA,694611.914900001,549838.1928,694611.8522,"New experiment",19,"[0]","dist_present",56,72,"yes","yes",1680,NA,NA,NA,NA,"NR","NR","lp",NA,NA,NA,NA,NA,NA,"practice",0,"NR","in"
"47",1236.36269999947,61032.5564999949,61032.5564999949,41,41,"y",1,"['5', '8', 'space']","y","#000000","no",692023.599600001,1,"neutral","psycho","psycho","psycho",0,"uniform",1,0,0,0,NA,0,0,NA,0,0,0,0,46,46,NA,NA,NA,NA,0,0,0,NA,46,0,46,73.2296414732588,"Thu Nov 25 14:34:53 2021","The main experiment item","yes","red","no","3","circle",NA,"pinging_target_expectations 4.0.osexp","C:\Users\etp-cp-ping\Desktop\LocalPC-EXP",75,"no","mono","no",18,"no","white","no","yes",1050,NA,100,"psycho",46,0,46,"C:/Users/etp-cp-ping/Desktop/LocalPC-EXP/subject-13.csv","psycho",39,47,47,"Lentiform Loewenfeld","3.3.8","['hori', 'hori', 'hori', 'vert', 'vert', 'hori', 'vert', 'vert']","yes",109,"diamond","yes",0,NA,2,"legacy",NA,1024,2,48000,-16,"experiment",13,"odd","green","no",7,"diamond",542164.2646,542189.3609,542189.399500001,NA,548932.276699999,NA,NA,218687.967,1363.68270000094,NA,218687.989800001,697652.046000001,700837.3735,NA,NA,NA,NA,1363.75950000001,549466.557900001,NA,NA,697652.0606,549838.1928,697651.995800001,"New experiment",19,"[0]","dist_present",56,84,"yes","yes",1680,NA,NA,NA,NA,"NR","NR","lp",NA,NA,NA,NA,NA,NA,"practice",6,"NR","in"
"48",653.146000000648,61685.7024999956,61685.7024999956,42,42,"y",1,"['5', '8', 'space']","y","#000000","no",701635.2816,1,"neutral","psycho","psycho","psycho",0,"uniform",1,0,0,0,NA,0,0,NA,0,0,0,0,47,47,NA,NA,NA,NA,0,0,0,NA,47,0,47,73.2296414732588,"Thu Nov 25 14:34:53 2021","The main experiment item","yes","red","no","None","circle",NA,"pinging_target_expectations 4.0.osexp","C:\Users\etp-cp-ping\Desktop\LocalPC-EXP",75,"no","mono","no",18,"no","white","no","yes",1050,NA,100,"psycho",47,0,47,"C:/Users/etp-cp-ping/Desktop/LocalPC-EXP/subject-13.csv","psycho",40,48,48,"Lentiform Loewenfeld","3.3.8","['vert', 'hori', 'vert', 'vert', 'hori', 'hori', 'vert', 'hori']","no",209,"None","yes",0,NA,2,"legacy",NA,1024,2,48000,-16,"experiment",13,"odd","green","no",6,"diamond",542164.2646,542189.3609,542189.399500001,NA,548932.276699999,NA,NA,218687.967,1363.68270000094,NA,218687.989800001,700869.8847,703621.3174,NA,NA,NA,NA,1363.75950000001,549466.557900001,NA,NA,700869.8991,549838.1928,700869.8343,"New experiment",19,"[0, 77.85966421717998, 86.40092784242796, 98.45328283692695, 113.45350378887997, 119.49123558177801, 131.79763025865628, 148.26061490376267, 161.34003091660938, 174.6691654343056, 183.91249354843657, 203.23395127939983, 219.29567643064152, 233.10151465147902, 249.03092056894192, 262.31698183678753, 274.94811324689624, 291.82965488569477, 306.54526582545685, 320.72622330414794, 338.29336287493896, 358.01400876048234, 368.28424558934984, 387.08306736099735, 405.31472715271053, 417.84707393646585, 439.94118865768775, 455.9758000186379, 480.7195116838664, 503.9350620324069, 519.3153924339701, 534.6560381916634, 555.9243422636657, 569.6237228532617, 583.1701633267375, 605.2589332261049, 615.0544148726962, 630.1620277366567, 642.833510049894, 655.5699301023459, 665.7043368706716, 681.0841240358451, 691.3812103093, 700.7392857958764, 710.6752307032773, 718.8509814609447, 728.9978031396408, 737.2372050425993, 754.9137846476094, 764.5918825876629, 771.7437471844925, 774.5510530552943, 789.243299165931, 797.0031198231367, 808.438154715622]","dist_absent",56,79,"yes","no",1680,NA,NA,NA,NA,"NR","NR","lp",NA,"Right",NA,"Right",NA,NA,"practice",7,"NR","in"
"49",1006.77940000058,62692.4818999962,62692.4818999962,43,43,"y",1,"['5', '8', 'space']","y","#000000","no",705036.8727,1,"neutral","psycho","psycho","psycho",0,"uniform",1,0,0,0,NA,0,0,NA,0,0,0,0,48,48,NA,NA,NA,NA,0,0,0,NA,48,0,48,73.2296414732588,"Thu Nov 25 14:34:53 2021","The main experiment item","yes","green","no","3","circle",NA,"pinging_target_expectations 4.0.osexp","C:\Users\etp-cp-ping\Desktop\LocalPC-EXP",75,"no","mono","no",18,"no","white","no","yes",1050,NA,100,"psycho",48,0,48,"C:/Users/etp-cp-ping/Desktop/LocalPC-EXP/subject-13.csv","psycho",41,49,49,"Lentiform Loewenfeld","3.3.8","['vert', 'hori', 'vert', 'hori', 'hori', 'vert', 'hori', 'vert']","no",209,"None","yes",0,NA,2,"legacy",NA,1024,2,48000,-16,"experiment",13,"odd","red","no",1,"diamond",542164.2646,542189.3609,542189.399500001,NA,548932.276699999,NA,NA,218687.967,1363.68270000094,NA,218687.989800001,703652.1017,706373.3261,NA,NA,NA,NA,1363.75950000001,549466.557900001,NA,NA,703652.116000001,549838.1928,703652.0514,"New experiment",19,"[0, 77.47065512041253, 86.16091066635852, 100.93609658225576, 107.93673504406554, 126.52091823672872, 137.78656316835196, 150.30635382444748, 157.29778941760372, 171.80745249383864, 185.93685916381486, 197.1029752602596, 211.10773901186906, 226.8599905395788, 240.83665691696842, 250.3594243918864, 262.36502961456046, 277.11966653869996, 291.5959479909936, 309.3637020033034, 319.9798177916001, 340.30467021023276, 354.8951837999148, 374.5497214820815, 393.04768768550485, 403.4642214657087, 421.08868070058696, 440.344081516891, 457.1864827024317, 479.057798029152, 494.09830757041306, 518.0304377646971, 525.9141398625112, 546.6662668346412, 565.5687460976793, 579.0270580993867, 597.4900818712985, 612.9169889326505, 626.52875418009, 636.1475101829111, 655.6188557471717, 665.6620597224296, 680.6792835098719, 689.3413341025959, 703.1105018366383, 711.2356787778597, 725.222694576306, 733.9916390406918, 746.7379264578369, 757.8082684224643, 765.2281455320093, 775.7502819851244, 788.2116134875972, 785.2355498744449]","dist_present",56,24,"yes","no",1680,NA,NA,NA,NA,"NR","NR","lp",NA,NA,NA,NA,NA,NA,"practice",6,"NR","in"
"50",680.465700001107,63372.9475999973,63372.9475999973,44,44,"y",1,"['5', '8', 'space']","y","#000000","no",707194.9038,1,"neutral","psycho","psycho","psycho",0,"uniform",1,0,0,0,NA,0,0,NA,0,0,0,0,49,49,NA,NA,NA,NA,0,0,0,NA,49,0,49,73.2296414732588,"Thu Nov 25 14:34:53 2021","The main experiment item","yes","green","no","7","circle",NA,"pinging_target_expectations 4.0.osexp","C:\Users\etp-cp-ping\Desktop\LocalPC-EXP",75,"no","mono","no",18,"no","white","no","yes",1050,NA,100,"psycho",49,0,49,"C:/Users/etp-cp-ping/Desktop/LocalPC-EXP/subject-13.csv","psycho",42,50,50,"Lentiform Loewenfeld","3.3.8","['vert', 'vert', 'hori', 'vert', 'hori', 'vert', 'hori', 'hori']","no",209,"None","yes",0,NA,2,"legacy",NA,1024,2,48000,-16,"experiment",13,"odd","red","no",2,"diamond",542164.2646,542189.3609,542189.399500001,NA,548932.276699999,NA,NA,218687.967,1363.68270000094,NA,218687.989800001,706404.1757,709029.322,NA,NA,NA,NA,1363.75950000001,549466.557900001,NA,NA,706404.190000001,549838.1928,706404.1253,"New experiment",19,"[0, 83.48203516513745, 95.82929253681368, 108.05711901230029, 123.92038650836838, 134.5100969142302, 145.88233369961313, 162.26854927853776, 175.45500057440154, 187.4925604318366, 208.79089688740652, 225.328630880614, 235.42511538928017, 255.12749895426208, 267.69683974192355, 281.469218589145, 296.73041543765123, 311.9077539711138, 330.1724509675661, 347.40681874067997, 367.4504704479531, 381.1457000261694, 406.2915218564407, 419.93076120248884, 442.9098037582109, 464.8176251324704, 490.66592408442, 520.2108568301561, 535.4509641004075, 556.6403413486127, 579.3585538241067, 601.2707091028159, 626.0047923139247, 642.9379032242119, 661.7341135834538, 684.2278953363042, 702.6371403651453, 714.8977359122775, 730.3866426013213, 745.2814891150721, 759.9384331816382, 782.5190801294269, 796.8325150362803, 823.6938119322191]","dist_present",56,38,"yes","no",1680,NA,NA,NA,NA,"NR","NR","lp",NA,NA,NA,NA,NA,NA,"practice",1,"NR","in"
"51",1674.44679999969,65047.394399997,65047.394399997,45,45,"y",1,"['5', '8', 'space']","y","#000000","no",710065.965400001,1,"neutral","psycho","psycho","psycho",0,"uniform",1,0,0,0,NA,0,0,NA,0,0,0,0,50,50,NA,NA,NA,NA,0,0,0,NA,50,0,50,73.2296414732588,"Thu Nov 25 14:34:53 2021","The main experiment item","yes","red","no","None","diamond",NA,"pinging_target_expectations 4.0.osexp","C:\Users\etp-cp-ping\Desktop\LocalPC-EXP",75,"no","mono","no",18,"no","white","no","yes",1050,NA,100,"psycho",50,0,50,"C:/Users/etp-cp-ping/Desktop/LocalPC-EXP/subject-13.csv","psycho",43,51,51,"Lentiform Loewenfeld","3.3.8","['hori', 'vert', 'hori', 'vert', 'vert', 'hori', 'hori', 'vert']","yes",109,"circles","yes",0,NA,2,"legacy",NA,1024,2,48000,-16,"experiment",13,"odd","green","no",0,"circle",542164.2646,542189.3609,542189.399500001,NA,548932.276699999,NA,NA,218687.967,1363.68270000094,NA,218687.989800001,709063.445100001,712677.376,NA,NA,NA,NA,1363.75950000001,549466.557900001,NA,NA,709063.4594,549838.1928,709063.3944,"New experiment",19,"[0]","dist_absent",56,19,"yes","yes",1680,NA,NA,NA,NA,"NR","NR","lp",NA,NA,NA,NA,NA,NA,"practice",2,"NR","in"
"52",683.346899999422,65730.7412999964,65730.7412999964,45,45,"y",1,"['5', '8', 'space']","y","#000000","no",710065.965400001,1,"neutral","psycho","psycho","psycho",0,"uniform",0,0,0,0,NA,0,0,NA,0,0,0,0,51,51,NA,NA,NA,NA,0,0,0,NA,51,0,51,73.2296414732588,"Thu Nov 25 14:34:53 2021","The main experiment item","yes","green","no","0","circle",NA,"pinging_target_expectations 4.0.osexp","C:\Users\etp-cp-ping\Desktop\LocalPC-EXP",75,"no","mono","no",18,"no","white","no","yes",1050,NA,100,"psycho",51,0,51,"C:/Users/etp-cp-ping/Desktop/LocalPC-EXP/subject-13.csv","psycho",43,52,52,"Lentiform Loewenfeld","3.3.8","['hori', 'vert', 'vert', 'hori', 'hori', 'vert', 'hori', 'vert']","no",209,"None","yes",0,NA,2,"legacy",NA,1024,2,48000,-16,"experiment",13,"odd","red","no",5,"diamond",542164.2646,542189.3609,542189.399500001,NA,548932.276699999,NA,NA,218687.967,1363.68270000094,NA,218687.989800001,712709.682799999,715269.441,NA,NA,NA,NA,1363.75950000001,549466.557900001,NA,NA,712709.6972,549838.1928,712709.632300001,"New experiment",19,"[0]","dist_present",56,61,"yes","yes",1680,NA,NA,NA,NA,"NR","NR","lp",NA,"Right",NA,NA,NA,NA,"practice",0,"NR","in"
"53",1766.47959999903,67497.2208999954,67497.2208999954,46,46,"y",1,"['5', '8', 'space']","y","#000000","no",716739.085000001,1,"neutral","psycho","psycho","psycho",0,"uniform",1,0,0,0,NA,0,0,NA,0,0,0,0,52,52,NA,NA,NA,NA,0,0,0,NA,52,0,52,73.2296414732588,"Thu Nov 25 14:34:53 2021","The main experiment item","yes","red","no","6","circle",NA,"pinging_target_expectations 4.0.osexp","C:\Users\etp-cp-ping\Desktop\LocalPC-EXP",75,"no","mono","no",18,"no","white","no","yes",1050,NA,100,"psycho",52,0,52,"C:/Users/etp-cp-ping/Desktop/LocalPC-EXP/subject-13.csv","psycho",45,53,53,"Lentiform Loewenfeld","3.3.8","['hori', 'vert', 'vert', 'hori', 'vert', 'hori', 'vert', 'hori']","yes",109,"diamond","yes",0,NA,2,"legacy",NA,1024,2,48000,-16,"experiment",13,"odd","green","no",1,"diamond",542164.2646,542189.3609,542189.399500001,NA,548932.276699999,NA,NA,218687.967,1363.68270000094,NA,218687.989800001,715300.2605,718965.4145,NA,NA,NA,NA,1363.75950000001,549466.557900001,NA,NA,715300.274900001,549838.1928,715300.209000001,"New experiment",19,"[0, 503.0485578696233, 533.43184617775, 561.1594075015067, 574.2059734973157, 591.0740099672727, 616.4394372403156, 645.2360191701741, 672.0360307934191, 683.1399180488862, 706.2549411193307, 728.0745541068532, 759.0139985533864, 787.9460433472364, 810.7493039181169, 830.3015094451633, 849.1771132789668, 875.3318023660509]","dist_present",56,27,"yes","no",1680,NA,NA,NA,NA,"NR","NR","lp",NA,NA,NA,NA,NA,NA,"practice",5,"NR","in"
"54",1487.55069999967,68984.7715999951,68984.7715999951,47,47,"y",1,"['5', '8', 'space']","y","#000000","no",720774.1828,1,"neutral","psycho","psycho","psycho",0,"uniform",1,0,0,0,NA,0,0,NA,0,0,0,0,53,53,NA,NA,NA,NA,0,0,0,NA,53,0,53,73.2296414732588,"Thu Nov 25 14:34:53 2021","The main experiment item","yes","green","no","3","diamond",NA,"pinging_target_expectations 4.0.osexp","C:\Users\etp-cp-ping\Desktop\LocalPC-EXP",75,"no","mono","no",18,"no","white","no","yes",1050,NA,100,"psycho",53,0,53,"C:/Users/etp-cp-ping/Desktop/LocalPC-EXP/subject-13.csv","psycho",46,54,54,"Lentiform Loewenfeld","3.3.8","['hori', 'vert', 'vert', 'hori', 'hori', 'vert', 'hori', 'vert']","no",209,"None","yes",0,NA,2,"legacy",NA,1024,2,48000,-16,"experiment",13,"odd","red","no",5,"circle",542164.2646,542189.3609,542189.399500001,NA,548932.276699999,NA,NA,218687.967,1363.68270000094,NA,218687.989800001,718996.4475,722389.386300001,NA,NA,NA,NA,1363.75950000001,549466.557900001,NA,NA,718996.462000001,549838.1928,718996.396800001,"New experiment",19,"[0]","dist_present",56,64,"yes","yes",1680,NA,NA,NA,NA,"NR","NR","lp",NA,NA,NA,NA,NA,NA,"practice",1,"NR","in"
"55",1166.42940000026,70151.2009999953,70151.2009999953,48,48,"y",1,"['5', '8', 'space']","y","#000000","no",722810.697700001,1,"neutral","psycho","psycho","psycho",0,"uniform",1,0,0,0,NA,0,0,NA,0,0,0,0,54,54,NA,NA,NA,NA,0,0,0,NA,54,0,54,73.2296414732588,"Thu Nov 25 14:34:53 2021","The main experiment item","yes","green","no","None","diamond",NA,"pinging_target_expectations 4.0.osexp","C:\Users\etp-cp-ping\Desktop\LocalPC-EXP",75,"no","mono","no",18,"no","white","no","yes",1050,NA,100,"psycho",54,0,54,"C:/Users/etp-cp-ping/Desktop/LocalPC-EXP/subject-13.csv","psycho",47,55,55,"Lentiform Loewenfeld","3.3.8","['vert', 'hori', 'hori', 'vert', 'hori', 'hori', 'vert', 'vert']","no",209,"None","yes",0,NA,2,"legacy",NA,1024,2,48000,-16,"experiment",13,"odd","red","no",0,"circle",542164.2646,542189.3609,542189.399500001,NA,548932.276699999,NA,NA,218687.967,1363.68270000094,NA,218687.989800001,722420.1165,725397.342,NA,NA,NA,NA,1363.75950000001,549466.557900001,NA,NA,722420.1307,549838.1928,722420.066799999,"New experiment",19,"[0]","dist_absent",56,19,"yes","yes",1680,NA,NA,NA,NA,"NR","NR","lp",NA,NA,NA,NA,NA,NA,"practice",5,"NR","in"
"56",1140.42310000141,71291.6240999968,71291.6240999968,49,49,"y",1,"['5', '8', 'space']","y","#000000","no",722810.697700001,1,"neutral","psycho","psycho","psycho",0,"uniform",1,0,0,0,NA,0,0,NA,0,0,0,0,55,55,NA,NA,NA,NA,0,0,0,NA,55,0,55,73.2296414732588,"Thu Nov 25 14:34:53 2021","The main experiment item","yes","red","no","1","circle",NA,"pinging_target_expectations 4.0.osexp","C:\Users\etp-cp-ping\Desktop\LocalPC-EXP",75,"no","mono","no",18,"no","white","no","yes",1050,NA,100,"psycho",55,0,55,"C:/Users/etp-cp-ping/Desktop/LocalPC-EXP/subject-13.csv","psycho",47,56,56,"Lentiform Loewenfeld","3.3.8","['hori', 'vert', 'hori', 'hori', 'vert', 'vert', 'hori', 'vert']","yes",109,"diamond","yes",0,NA,2,"legacy",NA,1024,2,48000,-16,"experiment",13,"odd","green","no",2,"diamond",542164.2646,542189.3609,542189.399500001,NA,548932.276699999,NA,NA,218687.967,1363.68270000094,NA,218687.989800001,725429.500100001,728405.3076,NA,NA,NA,NA,1363.75950000001,549466.557900001,NA,NA,725429.5146,549838.1928,725429.4484,"New experiment",19,"[0]","dist_present",56,32,"yes","yes",1680,NA,NA,NA,NA,"NR","NR","lp",NA,NA,NA,NA,NA,NA,"practice",0,"NR","in"
"57",1527.85789999866,1527.85789999866,72819.4819999954,1,50,"y",1,"['5', '8', 'space']","y","#000000","no",722810.697700001,2,"bias","psycho","psycho","psycho",0,"uniform",1,0,1,1,NA,1,0,NA,0,0,1,0,56,56,NA,NA,NA,NA,0,1,1,NA,56,1,56,73.2296414732588,"Thu Nov 25 14:34:53 2021","The main experiment item","yes","red","no","6","diamond",NA,"pinging_target_expectations 4.0.osexp","C:\Users\etp-cp-ping\Desktop\LocalPC-EXP",75,"no","mono","no",18,"no","white","no","yes",1050,NA,4,"psycho",0,1,0,"C:/Users/etp-cp-ping/Desktop/LocalPC-EXP/subject-13.csv","psycho",0,57,1,"Lentiform Loewenfeld","3.3.8","['vert', 'hori', 'hori', 'vert', 'vert', 'hori', 'hori', 'vert']","no",204,"None","no",0,NA,2,"legacy",NA,1024,2,48000,-16,"experiment",13,"odd","green","no",5,"circle",542164.2646,773466.4957,773466.5439,NA,792969.282600001,NA,NA,218687.967,1363.68270000094,728941.845400001,218687.989800001,807237.673200001,810741.3906,NA,NA,NA,NA,1363.75950000001,806649.6295,728435.427599999,NA,807237.6886,807233.361800001,807237.627100001,"New experiment",19,"[0]","dist_present",56,67,"yes","yes",1680,NA,NA,"no hp","True","NR","NR","lp",NA,NA,NA,NA,-1,-2,"first",999,"NR","in"
"58",922.011500000721,2449.86939999938,73741.4934999961,2,51,"y",1,"['5', '8', 'space']","y","#000000","no",722810.697700001,2,"bias","psycho","psycho","psycho",0,"uniform",1,0,1,1,NA,1,0,NA,0,0,1,0,57,57,NA,NA,NA,NA,0,1,1,NA,57,1,57,73.2296414732588,"Thu Nov 25 14:34:53 2021","The main experiment item","yes","red","no","None","circle",NA,"pinging_target_expectations 4.0.osexp","C:\Users\etp-cp-ping\Desktop\LocalPC-EXP",75,"no","mono","no",18,"no","white","no","yes",1050,NA,4,"psycho",1,1,1,"C:/Users/etp-cp-ping/Desktop/LocalPC-EXP/subject-13.csv","psycho",0,58,2,"Lentiform Loewenfeld","3.3.8","['vert', 'hori', 'vert', 'hori', 'hori', 'vert', 'vert', 'hori']","no",204,"None","no",0,NA,2,"legacy",NA,1024,2,48000,-16,"experiment",13,"odd","green","no",2,"diamond",542164.2646,773466.4957,773466.5439,NA,792969.282600001,NA,NA,218687.967,1363.68270000094,728941.845400001,218687.989800001,810774.823199999,813573.286000001,NA,NA,NA,NA,1363.75950000001,806649.6295,728435.427599999,NA,810774.840300001,807233.361800001,810774.7743,"New experiment",19,"[0]","dist_absent",56,39,"yes","yes",1680,NA,NA,"no hp","True","NR","NR","lp",NA,"Left",NA,"Left",2,NA,"first",5,"NR","in"
"59",1148.20770000003,3598.07709999941,74889.7011999962,3,52,"y",1,"['5', '8', 'space']","y","#000000","no",722810.697700001,2,"bias","psycho","psycho","psycho",0,"uniform",1,0,1,1,NA,1,0,NA,0,0,1,0,58,58,NA,NA,NA,NA,0,1,1,NA,58,1,58,73.2296414732588,"Thu Nov 25 14:34:53 2021","The main experiment item","yes","red","no","6","diamond",NA,"pinging_target_expectations 4.0.osexp","C:\Users\etp-cp-ping\Desktop\LocalPC-EXP",75,"no","mono","no",18,"no","white","no","yes",1050,NA,4,"psycho",2,1,2,"C:/Users/etp-cp-ping/Desktop/LocalPC-EXP/subject-13.csv","psycho",0,59,3,"Lentiform Loewenfeld","3.3.8","['vert', 'vert', 'hori', 'hori', 'vert', 'vert', 'hori', 'hori']","yes",104,"diamond","no",0,NA,2,"legacy",NA,1024,2,48000,-16,"experiment",13,"odd","green","yes",4,"circle",542164.2646,773466.4957,773466.5439,NA,792969.282600001,NA,NA,218687.967,1363.68270000094,728941.845400001,218687.989800001,813604.198500001,816517.352700001,NA,NA,NA,NA,1363.75950000001,806649.6295,728435.427599999,NA,813604.2127,807233.361800001,813604.148599999,"New experiment",19,"[0]","dist_present",56,57,"yes","yes",1680,NA,NA,"no hp","True","NR","NR","lp","Right",NA,"Right",NA,0,-2,"first",2,"NR","ex"
"60",914.50380000053,4512.58089999994,75804.2049999967,4,53,"y",1,"['5', '8', 'space']","y","#000000","no",722810.697700001,2,"bias","psycho","psycho","psycho",0,"uniform",1,0,1,1,NA,1,0,NA,0,0,1,0,59,59,NA,NA,NA,NA,0,1,1,NA,59,1,59,73.2296414732588,"Thu Nov 25 14:34:53 2021","The main experiment item","yes","red","no","None","diamond",NA,"pinging_target_expectations 4.0.osexp","C:\Users\etp-cp-ping\Desktop\LocalPC-EXP",75,"no","mono","no",18,"no","white","no","yes",1050,NA,4,"psycho",3,1,3,"C:/Users/etp-cp-ping/Desktop/LocalPC-EXP/subject-13.csv","psycho",0,60,4,"Lentiform Loewenfeld","3.3.8","['hori', 'vert', 'hori', 'vert', 'vert', 'hori', 'hori', 'vert']","no",204,"None","no",0,NA,2,"legacy",NA,1024,2,48000,-16,"experiment",13,"odd","green","yes",4,"circle",542164.2646,773466.4957,773466.5439,NA,792969.282600001,NA,NA,218687.967,1363.68270000094,728941.845400001,218687.989800001,816547.9612,819205.2891,NA,NA,NA,NA,1363.75950000001,806649.6295,728435.427599999,NA,816547.9758,807233.361800001,816547.911,"New experiment",19,"[0, 1119.0526073067015]","dist_absent",56,59,"yes","yes",1680,NA,NA,"no hp","True","R","NR","hp",NA,NA,NA,NA,0,NA,"first",4,"NR","ex"
"61",687.777499999269,5200.35839999921,76491.982499996,5,54,"y",1,"['5', '8', 'space']","y","#000000","no",722810.697700001,2,"bias","psycho","psycho","psycho",0,"uniform",1,0,1,1,NA,1,0,NA,0,0,1,0,60,60,NA,NA,NA,NA,0,1,1,NA,60,1,60,73.2296414732588,"Thu Nov 25 14:34:53 2021","The main experiment item","yes","green","no","None","circle",NA,"pinging_target_expectations 4.0.osexp","C:\Users\etp-cp-ping\Desktop\LocalPC-EXP",75,"no","mono","no",18,"no","white","no","yes",1050,NA,4,"psycho",4,1,4,"C:/Users/etp-cp-ping/Desktop/LocalPC-EXP/subject-13.csv","psycho",0,61,5,"Lentiform Loewenfeld","3.3.8","['hori', 'vert', 'hori', 'vert', 'vert', 'hori', 'hori', 'vert']","no",204,"None","no",0,NA,2,"legacy",NA,1024,2,48000,-16,"experiment",13,"odd","red","no",6,"diamond",542164.2646,773466.4957,773466.5439,NA,792969.282600001,NA,NA,218687.967,1363.68270000094,728941.845400001,218687.989800001,819235.921200001,821733.3048,NA,NA,NA,NA,1363.75950000001,806649.6295,728435.427599999,NA,819235.935500001,807233.361800001,819235.870100001,"New experiment",19,"[0, 1119.0526073067015]","dist_absent",56,79,"yes","yes",1680,NA,NA,"no hp","True","NR","R","hp",NA,"Right",NA,"Right",-2,NA,"first",4,"R","in"
"62",1740.96660000028,6941.32499999949,78232.9490999962,6,55,"y",1,"['5', '8', 'space']","y","#000000","no",722810.697700001,2,"bias","psycho","psycho","psycho",0,"uniform",1,0,1,1,NA,1,0,NA,0,0,1,0,61,61,NA,NA,NA,NA,0,1,1,NA,61,1,61,73.2296414732588,"Thu Nov 25 14:34:53 2021","The main experiment item","yes","green","yes","4","diamond",NA,"pinging_target_expectations 4.0.osexp","C:\Users\etp-cp-ping\Desktop\LocalPC-EXP",75,"no","mono","no",18,"no","white","no","yes",1050,NA,4,"psycho",5,1,5,"C:/Users/etp-cp-ping/Desktop/LocalPC-EXP/subject-13.csv","psycho",0,62,6,"Lentiform Loewenfeld","3.3.8","['hori', 'vert', 'vert', 'hori', 'hori', 'vert', 'vert', 'hori']","yes",104,"diamond","no",0,NA,2,"legacy",NA,1024,2,48000,-16,"experiment",13,"odd","red","no",3,"circle",542164.2646,773466.4957,773466.5439,NA,792969.282600001,NA,NA,218687.967,1363.68270000094,728941.845400001,218687.989800001,821763.917300001,825333.2945,NA,NA,NA,NA,1363.75950000001,806649.6295,728435.427599999,NA,821763.9315,807233.361800001,821763.866000001,"New experiment",19,"[0]","dist_present",56,45,"yes","yes",1680,NA,NA,"no hp","True","NR","NR","lp",NA,"Left",NA,NA,1,0,"first",6,"NR","in"
"63",942.898199999123,7884.22319999861,79175.8472999954,7,56,"y",1,"['5', '8', 'space']","y","#000000","no",722810.697700001,2,"bias","psycho","psycho","psycho",0,"uniform",1,0,1,1,NA,1,0,NA,0,0,1,0,62,62,NA,NA,NA,NA,0,1,1,NA,62,1,62,73.2296414732588,"Thu Nov 25 14:34:53 2021","The main experiment item","yes","red","no","1","diamond",NA,"pinging_target_expectations 4.0.osexp","C:\Users\etp-cp-ping\Desktop\LocalPC-EXP",75,"no","mono","no",18,"no","white","no","yes",1050,NA,4,"psycho",6,1,6,"C:/Users/etp-cp-ping/Desktop/LocalPC-EXP/subject-13.csv","psycho",0,63,7,"Lentiform Loewenfeld","3.3.8","['vert', 'vert', 'hori', 'vert', 'vert', 'hori', 'hori', 'hori']","no",204,"None","no",0,NA,2,"legacy",NA,1024,2,48000,-16,"experiment",13,"odd","green","no",7,"circle",542164.2646,773466.4957,773466.5439,NA,792969.282600001,NA,NA,218687.967,1363.68270000094,728941.845400001,218687.989800001,825364.1701,828421.273,NA,NA,NA,NA,1363.75950000001,806649.6295,728435.427599999,NA,825364.186700001,807233.361800001,825364.119100001,"New experiment",19,"[0]","dist_present",56,82,"yes","yes",1680,NA,NA,"no hp","True","NR","NR","lp",NA,NA,NA,NA,-3,3,"first",3,"NR","in"
"64",1040.03780000133,8924.26099999994,80215.8850999967,8,57,"y",1,"['5', '8', 'space']","y","#000000","no",722810.697700001,2,"bias","psycho","psycho","psycho",0,"uniform",1,0,1,1,NA,1,0,NA,0,0,1,0,63,63,NA,NA,NA,NA,0,1,1,NA,63,1,63,73.2296414732588,"Thu Nov 25 14:34:53 2021","The main experiment item","yes","green","no","3","diamond",NA,"pinging_target_expectations 4.0.osexp","C:\Users\etp-cp-ping\Desktop\LocalPC-EXP",75,"no","mono","no",18,"no","white","no","yes",1050,NA,4,"psycho",7,1,7,"C:/Users/etp-cp-ping/Desktop/LocalPC-EXP/subject-13.csv","psycho",0,64,8,"Lentiform Loewenfeld","3.3.8","['hori', 'vert', 'vert', 'vert', 'hori', 'vert', 'hori', 'hori']","yes",104,"circles","no",0,NA,2,"legacy",NA,1024,2,48000,-16,"experiment",13,"odd","red","yes",4,"circle",542164.2646,773466.4957,773466.5439,NA,792969.282600001,NA,NA,218687.967,1363.68270000094,728941.845400001,218687.989800001,828452.057300001,831285.328800001,NA,NA,NA,NA,1363.75950000001,806649.6295,728435.427599999,NA,828452.0717,807233.361800001,828452.006699999,"New experiment",19,"[0]","dist_present",56,54,"yes","yes",1680,NA,NA,"no hp","True","NR","NR","lp","Left",NA,NA,NA,0,1,"first",7,"NR","ex"
"65",1695.48500000022,10619.7460000002,81911.3700999969,9,58,"y",1,"['5', '8', 'space']","y","#000000","no",722810.697700001,2,"bias","psycho","psycho","psycho",0,"uniform",1,0,1,1,NA,1,0,NA,0,0,1,0,64,64,NA,NA,NA,NA,0,1,1,NA,64,1,64,73.2296414732588,"Thu Nov 25 14:34:53 2021","The main experiment item","yes","red","no","0","diamond",NA,"pinging_target_expectations 4.0.osexp","C:\Users\etp-cp-ping\Desktop\LocalPC-EXP",75,"no","mono","no",18,"no","white","no","yes",1050,NA,4,"psycho",8,1,8,"C:/Users/etp-cp-ping/Desktop/LocalPC-EXP/subject-13.csv","psycho",0,65,9,"Lentiform Loewenfeld","3.3.8","['hori', 'hori', 'vert', 'vert', 'vert', 'vert', 'hori', 'hori']","no",204,"None","no",0,NA,2,"legacy",NA,1024,2,48000,-16,"experiment",13,"odd","green","no",2,"circle",542164.2646,773466.4957,773466.5439,NA,792969.282600001,NA,NA,218687.967,1363.68270000094,728941.845400001,218687.989800001,831317.497,834965.3325,NA,NA,NA,NA,1363.75950000001,806649.6295,728435.427599999,NA,831317.5111,807233.361800001,831317.4471,"New experiment",19,"[0]","dist_present",56,31,"yes","yes",1680,NA,NA,"no hp","True","NR","NR","hp",NA,"Left",NA,"Left",2,4,"first",4,"NR","in"
"66",1360.83349999902,11980.5794999992,83272.2035999959,10,59,"y",1,"['5', '8', 'space']","y","#000000","no",722810.697700001,2,"bias","psycho","psycho","psycho",0,"uniform",1,0,1,1,NA,1,0,NA,0,0,1,0,65,65,NA,NA,NA,NA,0,1,1,NA,65,1,65,73.2296414732588,"Thu Nov 25 14:34:53 2021","The main experiment item","yes","red","no","2","diamond",NA,"pinging_target_expectations 4.0.osexp","C:\Users\etp-cp-ping\Desktop\LocalPC-EXP",75,"no","mono","no",18,"no","white","no","yes",1050,NA,4,"psycho",9,1,9,"C:/Users/etp-cp-ping/Desktop/LocalPC-EXP/subject-13.csv","psycho",0,66,10,"Lentiform Loewenfeld","3.3.8","['vert', 'hori', 'vert', 'vert', 'hori', 'hori', 'hori', 'vert']","yes",104,"diamond","no",0,NA,2,"legacy",NA,1024,2,48000,-16,"experiment",13,"odd","green","yes",4,"circle",542164.2646,773466.4957,773466.5439,NA,792969.282600001,NA,NA,218687.967,1363.68270000094,728941.845400001,218687.989800001,834996.1064,838405.340400001,NA,NA,NA,NA,1363.75950000001,806649.6295,728435.427599999,NA,834996.120600001,807233.361800001,834996.0563,"New experiment",19,"[0]","dist_present",56,53,"yes","yes",1680,NA,NA,"no hp","True","NR","NR","lp","Left",NA,"Left",NA,0,2,"first",2,"NR","ex"
"67",1070.49709999957,13051.0765999987,84342.7006999955,11,60,"y",1,"['5', '8', 'space']","y","#000000","no",722810.697700001,2,"bias","psycho","psycho","psycho",0,"uniform",1,0,1,1,NA,1,0,NA,0,0,1,0,66,66,NA,NA,NA,NA,0,1,1,NA,66,1,66,73.2296414732588,"Thu Nov 25 14:34:53 2021","The main experiment item","yes","green","no","None","diamond",NA,"pinging_target_expectations 4.0.osexp","C:\Users\etp-cp-ping\Desktop\LocalPC-EXP",75,"no","mono","no",18,"no","white","no","yes",1050,NA,4,"psycho",10,1,10,"C:/Users/etp-cp-ping/Desktop/LocalPC-EXP/subject-13.csv","psycho",0,67,11,"Lentiform Loewenfeld","3.3.8","['hori', 'vert', 'hori', 'hori', 'hori', 'vert', 'vert', 'vert']","yes",104,"circles","no",0,NA,2,"legacy",NA,1024,2,48000,-16,"experiment",13,"odd","red","no",5,"circle",542164.2646,773466.4957,773466.5439,NA,792969.282600001,NA,NA,218687.967,1363.68270000094,728941.845400001,218687.989800001,838436.682600001,841285.3006,NA,NA,NA,NA,1363.75950000001,806649.6295,728435.427599999,NA,838436.696700001,807233.361800001,838436.6316,"New experiment",19,"[0]","dist_absent",56,69,"yes","yes",1680,NA,NA,"no hp","True","NR","NR","hp",NA,"Right",NA,NA,-1,NA,"first",4,"NR","in"
