"","RT","RT_bl","RT_tot","acc_bl","acc_tot","answer_debrief_1","answer_debrief_2","answer_debrief_3","answer_debrief_4","background","bidi","blink_onset","block_cnt","block_type","canvas_backend","clock_backend","color_backend","compensation","coordinates","correct","count_block_loop","count_block_seq","count_block_settings","count_check_session","count_drift_correct","count_end_loop","count_end_seq","count_exp_settings","count_experiment","count_feedback","count_instructions","count_log_variables","count_logger","count_new_inline_script","count_new_pygaze_drift_correct","count_new_pygaze_start_recording","count_new_pygaze_stop_recording","count_pygaze","count_start_recording","count_stop_recording","count_test_location","count_trial","count_trial_loop","count_trial_seq","d_eye","datetime","description","disable_garbage_collection","dist_color","dist_high","dist_loc","dist_shape","empty_column","experiment_file","experiment_path","eye_threshold_length","font_bold","font_family","font_italic","font_size","font_underline","foreground","form_clicks","fullscreen","height","high_loc","high_prob_loc","keyboard_backend","live_row","live_row_block_loop","live_row_trial_loop","logfile","mouse_backend","nr_blinks","nr_trials","nr_trials_bl","opensesame_codename","opensesame_version","orient_list_trial","ping","ping_trigger","ping_type","practice","repeat_cycle","response","round_decimals","sampler_backend","session_nr","sound_buf_size","sound_channels","sound_freq","sound_sample_size","start","subject_nr","subject_parity","target_color","target_high","target_loc","target_shape","time_block_loop","time_block_seq","time_block_settings","time_check_session","time_drift_correct","time_end_loop","time_end_seq","time_exp_settings","time_experiment","time_feedback","time_instructions","time_log_variables","time_logger","time_new_inline_script","time_new_pygaze_drift_correct","time_new_pygaze_start_recording","time_new_pygaze_stop_recording","time_pygaze","time_start_recording","time_stop_recording","time_test_location","time_trial","time_trial_loop","time_trial_seq","title","total_blocks","tracker_dev","trial_type","trials_in_block","trigger","uniform_coordinates","update_blinks","width","x","y","toward","containsNaN","rept","repd","prevtar","pd","nt","pd_c","nt_c","tar_dist","dist_dist","prevHP","eegTar","repteeg","tarcounter"
"1",918.430900000152,918.430900000152,918.430900000152,0,0,"n",3,"['1', '5', 'space']","n","#000000","no",3506.99020000047,1,"neutral","psycho","psycho","psycho",0,"uniform",0,0,0,0,NA,0,0,NA,0,0,0,0,0,0,NA,NA,NA,NA,0,0,0,NA,0,0,0,73.2296414732588,"Thu Oct  7 11:38:46 2021","The main experiment item","yes","red","no","4","diamond",NA,"pinging_target_expectations 4.0.osexp","C:\Users\etp-cp-ping\Desktop\LocalPC-EXP",75,"no","mono","no",18,"no","white","no","yes",1050,NA,100,"psycho",0,0,0,"C:/Users/etp-cp-ping/Desktop/LocalPC-EXP/subject-22.csv","psycho",0,1,1,"Lentiform Loewenfeld","3.3.8","['vert', 'hori', 'hori', 'vert', 'hori', 'vert', 'hori', 'vert']","no",209,"None","yes",0,NA,2,"legacy",NA,1024,2,48000,-16,"experiment",22,"even","green","no",7,"circle",361184.817900001,361215.167400001,361215.206600001,NA,366752.833400001,NA,NA,78227.4970000008,3512.28050000009,NA,78227.5193000005,367645.6949,370625.5349,NA,NA,NA,NA,3512.35830000041,367270.291700001,NA,NA,367645.7126,367641.2693,367645.650500001,"New experiment",19,"[0]","dist_present",56,85,"yes","yes",1680,NA,NA,NA,NA,"NR","NR","lp",NA,"Right",NA,NA,NA,NA,"practice",999,"NR","in"
"2",1057.58439999953,1976.01529999968,1976.01529999968,1,1,"n",3,"['1', '5', 'space']","n","#000000","no",3506.99020000047,1,"neutral","psycho","psycho","psycho",0,"uniform",1,0,0,0,NA,0,0,NA,0,0,0,0,1,1,NA,NA,NA,NA,0,0,0,NA,1,0,1,73.2296414732588,"Thu Oct  7 11:38:46 2021","The main experiment item","yes","red","no","None","circle",NA,"pinging_target_expectations 4.0.osexp","C:\Users\etp-cp-ping\Desktop\LocalPC-EXP",75,"no","mono","no",18,"no","white","no","yes",1050,NA,100,"psycho",1,0,1,"C:/Users/etp-cp-ping/Desktop/LocalPC-EXP/subject-22.csv","psycho",0,2,2,"Lentiform Loewenfeld","3.3.8","['vert', 'vert', 'hori', 'vert', 'hori', 'hori', 'vert', 'hori']","yes",109,"diamond","yes",0,NA,2,"legacy",NA,1024,2,48000,-16,"experiment",22,"even","green","no",3,"diamond",361184.817900001,361215.167400001,361215.206600001,NA,366752.833400001,NA,NA,78227.4970000008,3512.28050000009,NA,78227.5193000005,370665.0159,373457.744900001,NA,NA,NA,NA,3512.35830000041,367270.291700001,NA,NA,370665.030300001,367641.2693,370664.9684,"New experiment",19,"[0, 73.40843706831447, 74.48524290027049]","dist_absent",56,49,"yes","yes",1680,NA,NA,NA,NA,"NR","NR","lp",NA,"Left",NA,NA,NA,NA,"practice",7,"NR","in"
"3",1322.34789999988,3298.36319999956,3298.36319999956,2,2,"n",3,"['1', '5', 'space']","n","#000000","no",3506.99020000047,1,"neutral","psycho","psycho","psycho",0,"uniform",1,0,0,0,NA,0,0,NA,0,0,0,0,2,2,NA,NA,NA,NA,0,0,0,NA,2,0,2,73.2296414732588,"Thu Oct  7 11:38:46 2021","The main experiment item","yes","red","no","0","diamond",NA,"pinging_target_expectations 4.0.osexp","C:\Users\etp-cp-ping\Desktop\LocalPC-EXP",75,"no","mono","no",18,"no","white","no","yes",1050,NA,100,"psycho",2,0,2,"C:/Users/etp-cp-ping/Desktop/LocalPC-EXP/subject-22.csv","psycho",0,3,3,"Lentiform Loewenfeld","3.3.8","['hori', 'vert', 'vert', 'hori', 'vert', 'hori', 'vert', 'hori']","yes",109,"diamond","yes",0,NA,2,"legacy",NA,1024,2,48000,-16,"experiment",22,"even","green","no",4,"circle",361184.817900001,361215.167400001,361215.206600001,NA,366752.833400001,NA,NA,78227.4970000008,3512.28050000009,NA,78227.5193000005,373488.4207,376657.583200001,NA,NA,NA,NA,3512.35830000041,367270.291700001,NA,NA,373488.4351,367641.2693,373488.3711,"New experiment",19,"[0, 74.36910336394305, 74.59344597628859, 74.87123317000109, 74.57997932857734, 74.43558610968805, 73.24347447203041, 73.27016304057759, 73.51602922312229, 73.71429352787182, 73.82037670154229, 73.76400732644456, 74.02409594034762, 73.99632780294512, 73.58431542829605, 74.44098137620158, 73.53126626912778, 73.72196976264193, 74.47181641688266, 74.09272766257675, 74.6000458909005, 73.80856313260652, 73.93797202571912, 73.66854123223767]","dist_present",56,51,"yes","yes",1680,NA,NA,NA,NA,"NR","NR","lp",NA,NA,NA,NA,NA,NA,"practice",3,"NR","in"
"4",1181.92720000021,4480.29039999977,4480.29039999977,3,3,"n",3,"['1', '5', 'space']","n","#000000","no",3506.99020000047,1,"neutral","psycho","psycho","psycho",0,"uniform",1,0,0,0,NA,0,0,NA,0,0,0,0,3,3,NA,NA,NA,NA,0,0,0,NA,3,0,3,73.2296414732588,"Thu Oct  7 11:38:46 2021","The main experiment item","yes","red","no","None","diamond",NA,"pinging_target_expectations 4.0.osexp","C:\Users\etp-cp-ping\Desktop\LocalPC-EXP",75,"no","mono","no",18,"no","white","no","yes",1050,NA,100,"psycho",3,0,3,"C:/Users/etp-cp-ping/Desktop/LocalPC-EXP/subject-22.csv","psycho",0,4,4,"Lentiform Loewenfeld","3.3.8","['hori', 'hori', 'vert', 'vert', 'vert', 'hori', 'vert', 'hori']","no",209,"None","yes",0,NA,2,"legacy",NA,1024,2,48000,-16,"experiment",22,"even","green","no",4,"circle",361184.817900001,361215.167400001,361215.206600001,NA,366752.833400001,NA,NA,78227.4970000008,3512.28050000009,NA,78227.5193000005,376687.6189,379873.741,NA,NA,NA,NA,3512.35830000041,367270.291700001,NA,NA,376687.633500001,367641.2693,376687.5693,"New experiment",19,"[0]","dist_absent",56,59,"yes","yes",1680,NA,NA,NA,NA,"R","NR","lp",NA,NA,NA,NA,NA,NA,"practice",4,"NR","in"
"5",2000.63450000016,6480.92489999993,6480.92489999993,3,3,"n",3,"['1', '5', 'space']","n","#000000","no",3506.99020000047,1,"neutral","psycho","psycho","psycho",0,"uniform",0,0,0,0,NA,0,0,NA,0,0,0,0,4,4,NA,NA,NA,NA,0,0,0,NA,4,0,4,73.2296414732588,"Thu Oct  7 11:38:46 2021","The main experiment item","yes","green","no","2","circle",NA,"pinging_target_expectations 4.0.osexp","C:\Users\etp-cp-ping\Desktop\LocalPC-EXP",75,"no","mono","no",18,"no","white","no","yes",1050,NA,100,"psycho",4,0,4,"C:/Users/etp-cp-ping/Desktop/LocalPC-EXP/subject-22.csv","psycho",0,5,5,"Lentiform Loewenfeld","3.3.8","['hori', 'vert', 'hori', 'hori', 'hori', 'vert', 'vert', 'vert']","yes",109,"circles","yes",0,NA,2,"legacy",NA,1024,2,48000,-16,"experiment",22,"even","red","no",6,"diamond",361184.817900001,361215.167400001,361215.206600001,NA,366752.833400001,NA,NA,78227.4970000008,3512.28050000009,NA,78227.5193000005,379903.8085,383686.5149,NA,NA,NA,NA,3512.35830000041,367270.291700001,NA,NA,379903.823500001,367641.2693,379903.7586,"New experiment",19,"[0, 74.33285743914996, 77.55492856408748, 78.44243814604155, 79.29316792443586, 75.00239756909987, 74.67883950507344]","dist_present",56,73,"yes","yes",1680,NA,NA,NA,NA,"NR","NR","lp",NA,NA,NA,NA,NA,NA,"practice",4,"R","in"
"6",2000.75490000017,8481.6798000001,8481.6798000001,3,3,"n",3,"['1', '5', 'space']","n","#000000","no",3506.99020000047,1,"neutral","psycho","psycho","psycho",0,"uniform",0,0,0,0,NA,0,0,NA,0,0,0,0,5,5,NA,NA,NA,NA,0,0,0,NA,5,0,5,73.2296414732588,"Thu Oct  7 11:38:46 2021","The main experiment item","yes","red","no","4","circle",NA,"pinging_target_expectations 4.0.osexp","C:\Users\etp-cp-ping\Desktop\LocalPC-EXP",75,"no","mono","no",18,"no","white","no","yes",1050,NA,100,"psycho",5,0,5,"C:/Users/etp-cp-ping/Desktop/LocalPC-EXP/subject-22.csv","psycho",0,6,6,"Lentiform Loewenfeld","3.3.8","['hori', 'hori', 'hori', 'hori', 'vert', 'vert', 'vert', 'vert']","no",209,"None","yes",0,NA,2,"legacy",NA,1024,2,48000,-16,"experiment",22,"even","green","no",2,"diamond",361184.817900001,361215.167400001,361215.206600001,NA,366752.833400001,NA,NA,78227.4970000008,3512.28050000009,NA,78227.5193000005,383716.386700001,387742.4675,NA,NA,NA,NA,3512.35830000041,367270.291700001,NA,NA,383716.4013,367641.2693,383716.338,"New experiment",19,"[0]","dist_present",56,35,"yes","yes",1680,NA,NA,NA,NA,"NR","NR","lp",NA,"Left",NA,"Left",NA,NA,"practice",6,"NR","in"
"7",2000.2468000002,10481.9266000003,10481.9266000003,3,3,"n",3,"['1', '5', 'space']","n","#000000","no",3506.99020000047,1,"neutral","psycho","psycho","psycho",0,"uniform",0,0,0,0,NA,0,0,NA,0,0,0,0,6,6,NA,NA,NA,NA,0,0,0,NA,6,0,6,73.2296414732588,"Thu Oct  7 11:38:46 2021","The main experiment item","yes","green","no","6","diamond",NA,"pinging_target_expectations 4.0.osexp","C:\Users\etp-cp-ping\Desktop\LocalPC-EXP",75,"no","mono","no",18,"no","white","no","yes",1050,NA,100,"psycho",6,0,6,"C:/Users/etp-cp-ping/Desktop/LocalPC-EXP/subject-22.csv","psycho",0,7,7,"Lentiform Loewenfeld","3.3.8","['vert', 'vert', 'vert', 'vert', 'hori', 'hori', 'hori', 'hori']","yes",109,"diamond","yes",0,NA,2,"legacy",NA,1024,2,48000,-16,"experiment",22,"even","red","no",0,"circle",361184.817900001,361215.167400001,361215.206600001,NA,366752.833400001,NA,NA,78227.4970000008,3512.28050000009,NA,78227.5193000005,387772.3143,391895.819400001,NA,NA,NA,NA,3512.35830000041,367270.291700001,NA,NA,387772.328800001,367641.2693,387772.265400001,"New experiment",19,"[0, 79.4093553388565, 82.221661374125, 85.06584715413682, 85.57312859136388, 82.25526550691804, 83.63759758321837, 79.4638098918009]","dist_present",56,17,"yes","yes",1680,NA,NA,NA,NA,"NR","NR","lp","Right",NA,"Right",NA,NA,NA,"practice",2,"NR","in"
"8",1197.43350000045,11679.3601000007,11679.3601000007,4,4,"n",3,"['1', '5', 'space']","n","#000000","no",3506.99020000047,1,"neutral","psycho","psycho","psycho",0,"uniform",1,0,0,0,NA,0,0,NA,0,0,0,0,7,7,NA,NA,NA,NA,0,0,0,NA,7,0,7,73.2296414732588,"Thu Oct  7 11:38:46 2021","The main experiment item","yes","red","no","3","diamond",NA,"pinging_target_expectations 4.0.osexp","C:\Users\etp-cp-ping\Desktop\LocalPC-EXP",75,"no","mono","no",18,"no","white","no","yes",1050,NA,100,"psycho",7,0,7,"C:/Users/etp-cp-ping/Desktop/LocalPC-EXP/subject-22.csv","psycho",0,8,8,"Lentiform Loewenfeld","3.3.8","['hori', 'vert', 'hori', 'vert', 'hori', 'hori', 'vert', 'vert']","no",209,"None","yes",0,NA,2,"legacy",NA,1024,2,48000,-16,"experiment",22,"even","green","no",6,"circle",361184.817900001,361215.167400001,361215.206600001,NA,366752.833400001,NA,NA,78227.4970000008,3512.28050000009,NA,78227.5193000005,391927.6955,395009.7616,NA,NA,NA,NA,3512.35830000041,367270.291700001,NA,NA,391927.710100001,367641.2693,391927.646900001,"New experiment",19,"[0, 73.75181815489461, 74.33472961118089, 74.38016897906023, 74.2841331575266, 73.98867221219265]","dist_present",56,74,"yes","yes",1680,NA,NA,NA,NA,"NR","NR","lp",NA,NA,NA,NA,NA,NA,"practice",0,"NR","in"
"9",871.226799999888,12550.5869000006,12550.5869000006,5,5,"n",3,"['1', '5', 'space']","n","#000000","no",3506.99020000047,1,"neutral","psycho","psycho","psycho",0,"uniform",1,0,0,0,NA,0,0,NA,0,0,0,0,8,8,NA,NA,NA,NA,0,0,0,NA,8,0,8,73.2296414732588,"Thu Oct  7 11:38:46 2021","The main experiment item","yes","red","no","7","circle",NA,"pinging_target_expectations 4.0.osexp","C:\Users\etp-cp-ping\Desktop\LocalPC-EXP",75,"no","mono","no",18,"no","white","no","yes",1050,NA,100,"psycho",8,0,8,"C:/Users/etp-cp-ping/Desktop/LocalPC-EXP/subject-22.csv","psycho",0,9,9,"Lentiform Loewenfeld","3.3.8","['hori', 'vert', 'hori', 'hori', 'hori', 'vert', 'vert', 'vert']","no",209,"None","yes",0,NA,2,"legacy",NA,1024,2,48000,-16,"experiment",22,"even","green","no",2,"diamond",361184.817900001,361215.167400001,361215.206600001,NA,366752.833400001,NA,NA,78227.4970000008,3512.28050000009,NA,78227.5193000005,395039.7671,397793.5833,NA,NA,NA,NA,3512.35830000041,367270.291700001,NA,NA,395039.7817,367641.2693,395039.717600001,"New experiment",19,"[0, 73.3709656628227, 73.46293409296705, 73.66446899082328, 73.42652103770111, 73.38999687031706, 73.8205869498305, 76.82458515049434, 80.80056356101511, 81.20497392726341, 83.95818809760672, 87.16841604817627, 87.94801397201553, 88.96207056942863, 89.86609780483741, 90.26469698869859, 90.59026920702215, 92.049112045258, 92.40997294982118, 91.64522320359039, 91.60194566817862, 91.68560410446125, 90.78683825313006, 84.13438898665036, 84.44079910485797, 84.39927798861878, 81.63150266767964, 79.22488607276432, 78.90581369000847, 77.86946929347612, 77.50542423684269, 74.3750711084888, 74.78957659060426, 75.49860363205914, 75.58733937653966, 75.26763673647002, 74.99820549611182, 73.31318834429254, 74.33173462567339, 74.55052525254256, 74.24050125347601, 74.8700453383426, 76.45896763421598, 73.61554016583044, 73.86269536182677, 76.08187744263084, 76.03381897825544, 74.80867867942774, 73.43295439721932, 73.4774059959579, 74.33033544314212, 74.55214862759401, 74.86419393929539, 74.68501883627268, 75.81460372635564, 75.38868690838352, 73.34849693043009, 75.04351515941111, 75.31087259976862, 74.59684426840613, 74.1049309988208, 73.83584776076644, 75.15881817337828, 76.61650695629332, 74.32954184586316, 75.08726620664427, 75.84827229513067, 73.45882411482107, 74.82789080408519, 74.7818348415326, 73.43845567862613, 73.49294688735849]","dist_present",56,38,"yes","yes",1680,NA,NA,NA,NA,"NR","NR","lp",NA,NA,NA,NA,NA,NA,"practice",6,"NR","in"
"10",1984.60960000014,14535.1965000008,14535.1965000008,6,6,"n",3,"['1', '5', 'space']","n","#000000","no",3506.99020000047,1,"neutral","psycho","psycho","psycho",0,"uniform",1,0,0,0,NA,0,0,NA,0,0,0,0,9,9,NA,NA,NA,NA,0,0,0,NA,9,0,9,73.2296414732588,"Thu Oct  7 11:38:46 2021","The main experiment item","yes","red","no","1","diamond",NA,"pinging_target_expectations 4.0.osexp","C:\Users\etp-cp-ping\Desktop\LocalPC-EXP",75,"no","mono","no",18,"no","white","no","yes",1050,NA,100,"psycho",9,0,9,"C:/Users/etp-cp-ping/Desktop/LocalPC-EXP/subject-22.csv","psycho",0,10,10,"Lentiform Loewenfeld","3.3.8","['hori', 'vert', 'vert', 'hori', 'vert', 'vert', 'hori', 'hori']","no",209,"None","yes",0,NA,2,"legacy",NA,1024,2,48000,-16,"experiment",22,"even","green","no",4,"circle",361184.817900001,361215.167400001,361215.206600001,NA,366752.833400001,NA,NA,78227.4970000008,3512.28050000009,NA,78227.5193000005,397823.5295,401857.6705,NA,NA,NA,NA,3512.35830000041,367270.291700001,NA,NA,397823.544100001,367641.2693,397823.479000001,"New experiment",19,"[0]","dist_present",56,52,"yes","yes",1680,NA,NA,NA,NA,"NR","NR","lp","Left",NA,NA,NA,NA,NA,"practice",2,"NR","in"
"11",946.197799999907,15481.3943000007,15481.3943000007,7,7,"n",3,"['1', '5', 'space']","n","#000000","no",3506.99020000047,1,"neutral","psycho","psycho","psycho",0,"uniform",1,0,0,0,NA,0,0,NA,0,0,0,0,10,10,NA,NA,NA,NA,0,0,0,NA,10,0,10,73.2296414732588,"Thu Oct  7 11:38:46 2021","The main experiment item","yes","red","no","6","circle",NA,"pinging_target_expectations 4.0.osexp","C:\Users\etp-cp-ping\Desktop\LocalPC-EXP",75,"no","mono","no",18,"no","white","no","yes",1050,NA,100,"psycho",10,0,10,"C:/Users/etp-cp-ping/Desktop/LocalPC-EXP/subject-22.csv","psycho",0,11,11,"Lentiform Loewenfeld","3.3.8","['hori', 'hori', 'vert', 'vert', 'vert', 'vert', 'hori', 'hori']","no",209,"None","yes",0,NA,2,"legacy",NA,1024,2,48000,-16,"experiment",22,"even","green","no",5,"diamond",361184.817900001,361215.167400001,361215.206600001,NA,366752.833400001,NA,NA,78227.4970000008,3512.28050000009,NA,78227.5193000005,401887.950300001,404641.646,NA,NA,NA,NA,3512.35830000041,367270.291700001,NA,NA,401887.9648,367641.2693,401887.900000001,"New experiment",19,"[0, 73.49788592769177, 73.93509892154908, 73.43249146817064, 73.98867221219265, 73.57511802194779, 73.48640131329539, 73.79060935052006, 73.65611187242199, 73.57587626301932, 74.21765001651997, 73.89107412239375, 73.35975738718739, 74.00028102512195, 73.44821873239056, 73.43358094596113, 73.60059776892811, 74.52013150820387]","dist_present",56,67,"yes","yes",1680,NA,NA,NA,NA,"NR","NR","lp",NA,NA,NA,NA,NA,NA,"practice",4,"NR","in"
"12",1818.14099999977,17299.5353000005,17299.5353000005,7,7,"n",3,"['1', '5', 'space']","n","#000000","no",3506.99020000047,1,"neutral","psycho","psycho","psycho",0,"uniform",0,0,0,0,NA,0,0,NA,0,0,0,0,11,11,NA,NA,NA,NA,0,0,0,NA,11,0,11,73.2296414732588,"Thu Oct  7 11:38:46 2021","The main experiment item","yes","green","no","4","circle",NA,"pinging_target_expectations 4.0.osexp","C:\Users\etp-cp-ping\Desktop\LocalPC-EXP",75,"no","mono","no",18,"no","white","no","yes",1050,NA,100,"psycho",11,0,11,"C:/Users/etp-cp-ping/Desktop/LocalPC-EXP/subject-22.csv","psycho",0,12,12,"Lentiform Loewenfeld","3.3.8","['vert', 'hori', 'vert', 'vert', 'hori', 'hori', 'vert', 'hori']","yes",109,"circles","yes",0,NA,2,"legacy",NA,1024,2,48000,-16,"experiment",22,"even","red","no",3,"diamond",361184.817900001,361215.167400001,361215.206600001,NA,366752.833400001,NA,NA,78227.4970000008,3512.28050000009,NA,78227.5193000005,404671.7373,408433.602900001,NA,NA,NA,NA,3512.35830000041,367270.291700001,NA,NA,404671.751700001,367641.2693,404671.6867,"New experiment",19,"[0, 73.8600196482654]","dist_present",56,45,"yes","yes",1680,NA,NA,NA,NA,"NR","NR","lp",NA,"Left",NA,NA,NA,NA,"practice",5,"NR","in"
"13",2000.86040000041,19300.3957000009,19300.3957000009,7,7,"n",3,"['1', '5', 'space']","n","#000000","no",3506.99020000047,1,"neutral","psycho","psycho","psycho",0,"uniform",0,0,0,0,NA,0,0,NA,0,0,0,0,12,12,NA,NA,NA,NA,0,0,0,NA,12,0,12,73.2296414732588,"Thu Oct  7 11:38:46 2021","The main experiment item","yes","green","no","3","circle",NA,"pinging_target_expectations 4.0.osexp","C:\Users\etp-cp-ping\Desktop\LocalPC-EXP",75,"no","mono","no",18,"no","white","no","yes",1050,NA,100,"psycho",12,0,12,"C:/Users/etp-cp-ping/Desktop/LocalPC-EXP/subject-22.csv","psycho",0,13,13,"Lentiform Loewenfeld","3.3.8","['vert', 'vert', 'hori', 'hori', 'vert', 'vert', 'hori', 'hori']","no",209,"None","yes",0,NA,2,"legacy",NA,1024,2,48000,-16,"experiment",22,"even","red","no",7,"diamond",361184.817900001,361215.167400001,361215.206600001,NA,366752.833400001,NA,NA,78227.4970000008,3512.28050000009,NA,78227.5193000005,408463.4906,412327.2955,NA,NA,NA,NA,3512.35830000041,367270.291700001,NA,NA,408463.5048,367641.2693,408463.4415,"New experiment",19,"[0]","dist_present",56,84,"yes","yes",1680,NA,NA,NA,NA,"NR","NR","lp",NA,NA,NA,NA,NA,NA,"practice",3,"NR","in"
"14",1229.29550000024,20529.6912000011,20529.6912000011,8,8,"n",3,"['1', '5', 'space']","n","#000000","no",3506.99020000047,1,"neutral","psycho","psycho","psycho",0,"uniform",1,0,0,0,NA,0,0,NA,0,0,0,0,13,13,NA,NA,NA,NA,0,0,0,NA,13,0,13,73.2296414732588,"Thu Oct  7 11:38:46 2021","The main experiment item","yes","red","no","5","circle",NA,"pinging_target_expectations 4.0.osexp","C:\Users\etp-cp-ping\Desktop\LocalPC-EXP",75,"no","mono","no",18,"no","white","no","yes",1050,NA,100,"psycho",13,0,13,"C:/Users/etp-cp-ping/Desktop/LocalPC-EXP/subject-22.csv","psycho",0,14,14,"Lentiform Loewenfeld","3.3.8","['hori', 'vert', 'hori', 'vert', 'vert', 'vert', 'hori', 'hori']","yes",109,"circles","yes",0,NA,2,"legacy",NA,1024,2,48000,-16,"experiment",22,"even","green","no",2,"diamond",361184.817900001,361215.167400001,361215.206600001,NA,366752.833400001,NA,NA,78227.4970000008,3512.28050000009,NA,78227.5193000005,412357.161600001,415393.724500001,NA,NA,NA,NA,3512.35830000041,367270.291700001,NA,NA,412357.1761,367641.2693,412357.1115,"New experiment",19,"[0]","dist_present",56,36,"yes","yes",1680,NA,NA,NA,NA,"NR","NR","lp",NA,NA,NA,NA,NA,NA,"practice",7,"NR","in"
"15",2000.63479999977,22530.3260000009,22530.3260000009,8,8,"n",3,"['1', '5', 'space']","n","#000000","no",3506.99020000047,1,"neutral","psycho","psycho","psycho",0,"uniform",0,0,0,0,NA,0,0,NA,0,0,0,0,14,14,NA,NA,NA,NA,0,0,0,NA,14,0,14,73.2296414732588,"Thu Oct  7 11:38:46 2021","The main experiment item","yes","green","no","7","circle",NA,"pinging_target_expectations 4.0.osexp","C:\Users\etp-cp-ping\Desktop\LocalPC-EXP",75,"no","mono","no",18,"no","white","no","yes",1050,NA,100,"psycho",14,0,14,"C:/Users/etp-cp-ping/Desktop/LocalPC-EXP/subject-22.csv","psycho",0,15,15,"Lentiform Loewenfeld","3.3.8","['vert', 'vert', 'hori', 'vert', 'hori', 'vert', 'hori', 'hori']","no",209,"None","yes",0,NA,2,"legacy",NA,1024,2,48000,-16,"experiment",22,"even","red","no",1,"diamond",361184.817900001,361215.167400001,361215.206600001,NA,366752.833400001,NA,NA,78227.4970000008,3512.28050000009,NA,78227.5193000005,415423.836800001,419383.8936,NA,NA,NA,NA,3512.35830000041,367270.291700001,NA,NA,415423.851400001,367641.2693,415423.788,"New experiment",19,"[0]","dist_present",56,28,"yes","yes",1680,NA,NA,NA,NA,"NR","NR","lp",NA,NA,NA,NA,NA,NA,"practice",2,"NR","in"
"16",1402.62309999985,23932.9491000007,23932.9491000007,9,9,"n",3,"['1', '5', 'space']","n","#000000","no",3506.99020000047,1,"neutral","psycho","psycho","psycho",0,"uniform",1,0,0,0,NA,0,0,NA,0,0,0,0,15,15,NA,NA,NA,NA,0,0,0,NA,15,0,15,73.2296414732588,"Thu Oct  7 11:38:46 2021","The main experiment item","yes","green","no","None","diamond",NA,"pinging_target_expectations 4.0.osexp","C:\Users\etp-cp-ping\Desktop\LocalPC-EXP",75,"no","mono","no",18,"no","white","no","yes",1050,NA,100,"psycho",15,0,15,"C:/Users/etp-cp-ping/Desktop/LocalPC-EXP/subject-22.csv","psycho",0,16,16,"Lentiform Loewenfeld","3.3.8","['hori', 'vert', 'vert', 'hori', 'vert', 'vert', 'hori', 'hori']","no",209,"None","yes",0,NA,2,"legacy",NA,1024,2,48000,-16,"experiment",22,"even","red","no",7,"circle",361184.817900001,361215.167400001,361215.206600001,NA,366752.833400001,NA,NA,78227.4970000008,3512.28050000009,NA,78227.5193000005,419413.735900001,422657.626900001,NA,NA,NA,NA,3512.35830000041,367270.291700001,NA,NA,419413.750500001,367641.2693,419413.6871,"New experiment",19,"[0]","dist_absent",56,89,"yes","yes",1680,NA,NA,NA,NA,"NR","NR","lp",NA,"Right",NA,NA,NA,NA,"practice",1,"NR","in"
"17",2000.14749999996,25933.0966000007,25933.0966000007,9,9,"n",3,"['1', '5', 'space']","n","#000000","no",3506.99020000047,1,"neutral","psycho","psycho","psycho",0,"uniform",0,0,0,0,NA,0,0,NA,0,0,0,0,16,16,NA,NA,NA,NA,0,0,0,NA,16,0,16,73.2296414732588,"Thu Oct  7 11:38:46 2021","The main experiment item","yes","red","no","None","diamond",NA,"pinging_target_expectations 4.0.osexp","C:\Users\etp-cp-ping\Desktop\LocalPC-EXP",75,"no","mono","no",18,"no","white","no","yes",1050,NA,100,"psycho",16,0,16,"C:/Users/etp-cp-ping/Desktop/LocalPC-EXP/subject-22.csv","psycho",0,17,17,"Lentiform Loewenfeld","3.3.8","['hori', 'hori', 'vert', 'vert', 'vert', 'vert', 'hori', 'hori']","no",209,"None","yes",0,NA,2,"legacy",NA,1024,2,48000,-16,"experiment",22,"even","green","no",6,"circle",361184.817900001,361215.167400001,361215.206600001,NA,366752.833400001,NA,NA,78227.4970000008,3512.28050000009,NA,78227.5193000005,422687.726900001,426556.9156,NA,NA,NA,NA,3512.35830000041,367270.291700001,NA,NA,422687.741500001,367641.2693,422687.677800001,"New experiment",19,"[0]","dist_absent",56,79,"yes","yes",1680,NA,NA,NA,NA,"NR","R","lp",NA,"Right",NA,"Right",NA,NA,"practice",7,"NR","in"
"18",1407.39389999997,27340.4905000007,27340.4905000007,9,9,"n",3,"['1', '5', 'space']","n","#000000","no",428046.5313,1,"neutral","psycho","psycho","psycho",0,"uniform",0,0,0,0,NA,0,0,NA,0,0,0,0,17,17,NA,NA,NA,NA,0,0,0,NA,17,0,17,73.2296414732588,"Thu Oct  7 11:38:46 2021","The main experiment item","yes","red","no","6","diamond",NA,"pinging_target_expectations 4.0.osexp","C:\Users\etp-cp-ping\Desktop\LocalPC-EXP",75,"no","mono","no",18,"no","white","no","yes",1050,NA,100,"psycho",17,0,17,"C:/Users/etp-cp-ping/Desktop/LocalPC-EXP/subject-22.csv","psycho",1,18,18,"Lentiform Loewenfeld","3.3.8","['vert', 'vert', 'hori', 'hori', 'hori', 'vert', 'hori', 'vert']","yes",109,"circles","yes",0,NA,2,"legacy",NA,1024,2,48000,-16,"experiment",22,"even","green","no",4,"circle",361184.817900001,361215.167400001,361215.206600001,NA,366752.833400001,NA,NA,78227.4970000008,3512.28050000009,NA,78227.5193000005,426586.8263,430017.677600001,NA,NA,NA,NA,3512.35830000041,367270.291700001,NA,NA,426586.840600001,367641.2693,426586.7771,"New experiment",19,"[0]","dist_present",56,57,"yes","yes",1680,NA,NA,NA,NA,"NR","NR","lp","Right",NA,"Right",NA,NA,NA,"practice",6,"NR","in"
"19",2000.17029999982,29340.6608000005,29340.6608000005,9,9,"n",3,"['1', '5', 'space']","n","#000000","no",428046.5313,1,"neutral","psycho","psycho","psycho",0,"uniform",0,0,0,0,NA,0,0,NA,0,0,0,0,18,18,NA,NA,NA,NA,0,0,0,NA,18,0,18,73.2296414732588,"Thu Oct  7 11:38:46 2021","The main experiment item","yes","green","no","2","circle",NA,"pinging_target_expectations 4.0.osexp","C:\Users\etp-cp-ping\Desktop\LocalPC-EXP",75,"no","mono","no",18,"no","white","no","yes",1050,NA,100,"psycho",18,0,18,"C:/Users/etp-cp-ping/Desktop/LocalPC-EXP/subject-22.csv","psycho",1,19,19,"Lentiform Loewenfeld","3.3.8","['vert', 'vert', 'hori', 'hori', 'hori', 'vert', 'hori', 'vert']","no",209,"None","yes",0,NA,2,"legacy",NA,1024,2,48000,-16,"experiment",22,"even","red","no",6,"diamond",361184.817900001,361215.167400001,361215.206600001,NA,366752.833400001,NA,NA,78227.4970000008,3512.28050000009,NA,78227.5193000005,430047.8337,433886.3798,NA,NA,NA,NA,3512.35830000041,367270.291700001,NA,NA,430047.848,367641.2693,430047.7847,"New experiment",19,"[0]","dist_present",56,73,"yes","yes",1680,NA,NA,NA,NA,"NR","NR","lp",NA,NA,NA,NA,NA,NA,"practice",4,"NR","in"
"20",1194.08999999997,30534.7508000004,30534.7508000004,10,10,"n",3,"['1', '5', 'space']","n","#000000","no",428046.5313,1,"neutral","psycho","psycho","psycho",0,"uniform",1,0,0,0,NA,0,0,NA,0,0,0,0,19,19,NA,NA,NA,NA,0,0,0,NA,19,0,19,73.2296414732588,"Thu Oct  7 11:38:46 2021","The main experiment item","yes","red","no","1","circle",NA,"pinging_target_expectations 4.0.osexp","C:\Users\etp-cp-ping\Desktop\LocalPC-EXP",75,"no","mono","no",18,"no","white","no","yes",1050,NA,100,"psycho",19,0,19,"C:/Users/etp-cp-ping/Desktop/LocalPC-EXP/subject-22.csv","psycho",1,20,20,"Lentiform Loewenfeld","3.3.8","['hori', 'hori', 'hori', 'vert', 'vert', 'vert', 'vert', 'hori']","yes",109,"diamond","yes",0,NA,2,"legacy",NA,1024,2,48000,-16,"experiment",22,"even","green","no",2,"diamond",361184.817900001,361215.167400001,361215.206600001,NA,366752.833400001,NA,NA,78227.4970000008,3512.28050000009,NA,78227.5193000005,433917.832,437089.763000001,NA,NA,NA,NA,3512.35830000041,367270.291700001,NA,NA,433917.846200001,367641.2693,433917.7827,"New experiment",19,"[0]","dist_present",56,32,"yes","yes",1680,NA,NA,NA,NA,"NR","NR","lp",NA,NA,NA,NA,NA,NA,"practice",6,"NR","in"
"21",1576.63620000042,32111.3870000009,32111.3870000009,11,11,"n",3,"['1', '5', 'space']","n","#000000","no",428046.5313,1,"neutral","psycho","psycho","psycho",0,"uniform",1,0,0,0,NA,0,0,NA,0,0,0,0,20,20,NA,NA,NA,NA,0,0,0,NA,20,0,20,73.2296414732588,"Thu Oct  7 11:38:46 2021","The main experiment item","yes","red","no","2","diamond",NA,"pinging_target_expectations 4.0.osexp","C:\Users\etp-cp-ping\Desktop\LocalPC-EXP",75,"no","mono","no",18,"no","white","no","yes",1050,NA,100,"psycho",20,0,20,"C:/Users/etp-cp-ping/Desktop/LocalPC-EXP/subject-22.csv","psycho",1,21,21,"Lentiform Loewenfeld","3.3.8","['vert', 'vert', 'hori', 'vert', 'hori', 'hori', 'vert', 'hori']","no",209,"None","yes",0,NA,2,"legacy",NA,1024,2,48000,-16,"experiment",22,"even","green","no",0,"circle",361184.817900001,361215.167400001,361215.206600001,NA,366752.833400001,NA,NA,78227.4970000008,3512.28050000009,NA,78227.5193000005,437119.934400001,440369.6774,NA,NA,NA,NA,3512.35830000041,367270.291700001,NA,NA,437119.9489,367641.2693,437119.8835,"New experiment",19,"[0, 77.8276256163721, 75.47713106931046, 75.43849784286364, 82.02242023907425, 84.0300454674395, 83.90874388170154, 80.71085296978049, 78.44741797979114, 78.71466096962297, 78.08431610998024, 77.8606980183108, 73.5941846623361, 73.31318834429254, 73.27971376988276]","dist_present",56,13,"yes","yes",1680,NA,NA,NA,NA,"NR","NR","lp","Left",NA,"Left",NA,NA,NA,"practice",2,"NR","in"
"22",746.83280000044,32858.2198000013,32858.2198000013,12,12,"n",3,"['1', '5', 'space']","n","#000000","no",428046.5313,1,"neutral","psycho","psycho","psycho",0,"uniform",1,0,0,0,NA,0,0,NA,0,0,0,0,21,21,NA,NA,NA,NA,0,0,0,NA,21,0,21,73.2296414732588,"Thu Oct  7 11:38:46 2021","The main experiment item","yes","green","no","None","diamond",NA,"pinging_target_expectations 4.0.osexp","C:\Users\etp-cp-ping\Desktop\LocalPC-EXP",75,"no","mono","no",18,"no","white","no","yes",1050,NA,100,"psycho",21,0,21,"C:/Users/etp-cp-ping/Desktop/LocalPC-EXP/subject-22.csv","psycho",1,22,22,"Lentiform Loewenfeld","3.3.8","['vert', 'hori', 'vert', 'hori', 'vert', 'hori', 'hori', 'vert']","yes",109,"diamond","yes",0,NA,2,"legacy",NA,1024,2,48000,-16,"experiment",22,"even","red","no",5,"circle",361184.817900001,361215.167400001,361215.206600001,NA,366752.833400001,NA,NA,78227.4970000008,3512.28050000009,NA,78227.5193000005,440399.7981,443089.7461,NA,NA,NA,NA,3512.35830000041,367270.291700001,NA,NA,440399.812600001,367641.2693,440399.748000001,"New experiment",19,"[0, 73.43294251151306]","dist_absent",56,69,"yes","yes",1680,NA,NA,NA,NA,"NR","NR","lp",NA,"Right",NA,NA,NA,NA,"practice",0,"NR","in"
"23",670.780099999334,33528.9999000006,33528.9999000006,13,13,"n",3,"['1', '5', 'space']","n","#000000","no",428046.5313,1,"neutral","psycho","psycho","psycho",0,"uniform",1,0,0,0,NA,0,0,NA,0,0,0,0,22,22,NA,NA,NA,NA,0,0,0,NA,22,0,22,73.2296414732588,"Thu Oct  7 11:38:46 2021","The main experiment item","yes","green","no","6","diamond",NA,"pinging_target_expectations 4.0.osexp","C:\Users\etp-cp-ping\Desktop\LocalPC-EXP",75,"no","mono","no",18,"no","white","no","yes",1050,NA,100,"psycho",22,0,22,"C:/Users/etp-cp-ping/Desktop/LocalPC-EXP/subject-22.csv","psycho",1,23,23,"Lentiform Loewenfeld","3.3.8","['vert', 'hori', 'vert', 'hori', 'hori', 'hori', 'vert', 'vert']","yes",109,"diamond","yes",0,NA,2,"legacy",NA,1024,2,48000,-16,"experiment",22,"even","red","no",7,"circle",361184.817900001,361215.167400001,361215.206600001,NA,366752.833400001,NA,NA,78227.4970000008,3512.28050000009,NA,78227.5193000005,443119.9796,445553.63,NA,NA,NA,NA,3512.35830000041,367270.291700001,NA,NA,443119.9941,367641.2693,443119.929900001,"New experiment",19,"[0, 76.69945569498421, 77.78558920638051, 78.51240579532458, 80.40903949689422, 81.14790568866549, 83.02024111366065, 83.92473076853062, 85.12748741604959, 87.1506689679583, 85.11556613445457, 84.56254136495807, 83.20941208641136, 77.89597245310158, 77.81222093009791, 77.72889383942305, 76.56925863026026, 73.29834646985967, 74.19465982392173, 75.45764821941698, 78.16138886919605, 73.31228830292427, 74.5366776554912, 75.46720297165797, 73.53586626898687, 76.52055818664718, 75.61214104906819, 74.4526524775192, 74.41079947734774, 74.31998640768651, 73.34608372672028, 73.70332908202815, 77.16948244608352, 76.09076258253278, 74.85779342085894, 73.32829789693122, 74.03546447480423, 73.58328614570023, 73.69140309021759, 73.30008182703342]","dist_present",56,87,"yes","yes",1680,NA,NA,NA,NA,"NR","NR","lp",NA,NA,NA,NA,NA,NA,"practice",5,"NR","in"
"24",1909.58369999955,35438.5836000002,35438.5836000002,14,14,"n",3,"['1', '5', 'space']","n","#000000","no",428046.5313,1,"neutral","psycho","psycho","psycho",0,"uniform",1,0,0,0,NA,0,0,NA,0,0,0,0,23,23,NA,NA,NA,NA,0,0,0,NA,23,0,23,73.2296414732588,"Thu Oct  7 11:38:46 2021","The main experiment item","yes","red","no","None","circle",NA,"pinging_target_expectations 4.0.osexp","C:\Users\etp-cp-ping\Desktop\LocalPC-EXP",75,"no","mono","no",18,"no","white","no","yes",1050,NA,100,"psycho",23,0,23,"C:/Users/etp-cp-ping/Desktop/LocalPC-EXP/subject-22.csv","psycho",1,24,24,"Lentiform Loewenfeld","3.3.8","['hori', 'vert', 'vert', 'vert', 'vert', 'hori', 'hori', 'hori']","no",209,"None","yes",0,NA,2,"legacy",NA,1024,2,48000,-16,"experiment",22,"even","green","no",4,"diamond",361184.817900001,361215.167400001,361215.206600001,NA,366752.833400001,NA,NA,78227.4970000008,3512.28050000009,NA,78227.5193000005,445583.7563,449457.6954,NA,NA,NA,NA,3512.35830000041,367270.291700001,NA,NA,445583.7705,367641.2693,445583.7062,"New experiment",19,"[0]","dist_absent",56,59,"yes","yes",1680,NA,NA,NA,NA,"NR","NR","lp",NA,NA,NA,NA,NA,NA,"practice",7,"NR","in"
"25",1243.30300000019,36681.8866000004,36681.8866000004,14,14,"n",3,"['1', '5', 'space']","n","#000000","no",428046.5313,1,"neutral","psycho","psycho","psycho",0,"uniform",0,0,0,0,NA,0,0,NA,0,0,0,0,24,24,NA,NA,NA,NA,0,0,0,NA,24,0,24,73.2296414732588,"Thu Oct  7 11:38:46 2021","The main experiment item","yes","red","no","0","diamond",NA,"pinging_target_expectations 4.0.osexp","C:\Users\etp-cp-ping\Desktop\LocalPC-EXP",75,"no","mono","no",18,"no","white","no","yes",1050,NA,100,"psycho",24,0,24,"C:/Users/etp-cp-ping/Desktop/LocalPC-EXP/subject-22.csv","psycho",1,25,25,"Lentiform Loewenfeld","3.3.8","['hori', 'vert', 'vert', 'hori', 'hori', 'vert', 'vert', 'hori']","no",209,"None","yes",0,NA,2,"legacy",NA,1024,2,48000,-16,"experiment",22,"even","green","no",5,"circle",361184.817900001,361215.167400001,361215.206600001,NA,366752.833400001,NA,NA,78227.4970000008,3512.28050000009,NA,78227.5193000005,449487.929100001,452657.791600001,NA,NA,NA,NA,3512.35830000041,367270.291700001,NA,NA,449487.943800001,367641.2693,449487.879900001,"New experiment",19,"[0]","dist_present",56,61,"yes","yes",1680,NA,NA,NA,NA,"NR","NR","lp",NA,"Right",NA,NA,NA,NA,"practice",4,"NR","in"
"26",1706.48280000023,38388.3694000006,38388.3694000006,15,15,"n",3,"['1', '5', 'space']","n","#000000","no",428046.5313,1,"neutral","psycho","psycho","psycho",0,"uniform",1,0,0,0,NA,0,0,NA,0,0,0,0,25,25,NA,NA,NA,NA,0,0,0,NA,25,0,25,73.2296414732588,"Thu Oct  7 11:38:46 2021","The main experiment item","yes","green","no","3","circle",NA,"pinging_target_expectations 4.0.osexp","C:\Users\etp-cp-ping\Desktop\LocalPC-EXP",75,"no","mono","no",18,"no","white","no","yes",1050,NA,100,"psycho",25,0,25,"C:/Users/etp-cp-ping/Desktop/LocalPC-EXP/subject-22.csv","psycho",1,26,26,"Lentiform Loewenfeld","3.3.8","['hori', 'vert', 'hori', 'hori', 'vert', 'hori', 'vert', 'vert']","no",209,"None","yes",0,NA,2,"legacy",NA,1024,2,48000,-16,"experiment",22,"even","red","no",1,"diamond",361184.817900001,361215.167400001,361215.206600001,NA,366752.833400001,NA,NA,78227.4970000008,3512.28050000009,NA,78227.5193000005,452688.0294,456145.819900001,NA,NA,NA,NA,3512.35830000041,367270.291700001,NA,NA,452688.043800001,367641.2693,452687.980000001,"New experiment",19,"[0, 73.29840873875372, 74.06220058615664, 73.62404498531713, 73.57533934058564, 73.76214487197363, 73.94952645811334, 73.83228896987988, 73.23020600332666, 73.31698758777266, 73.56764033920668, 74.53544434280381, 74.06843078508645, 73.54359559391216, 73.88926561415182, 75.78552549150915, 74.31397801963098, 74.5086511041209, 74.76021052102908, 75.33872003702372, 75.190249675346, 74.61935273597004, 75.01918084808368, 74.8184332997288, 73.8999459685888, 74.19893850713927, 74.32209360219035, 74.22245410987453, 74.52685443832236, 74.72142659101888, 74.5469650623015, 74.01459023646035, 73.40202258075665, 73.25597888488667, 75.13194767718734, 74.69310250463302, 74.92941527978552, 74.63618111378715, 73.72848204691017, 74.57646292243733, 73.824115301167, 73.64807137983247, 73.56764033920668, 73.7116466082784, 73.95374801660644, 73.54482825253902, 74.21336395753268, 74.25108572734871, 73.39216409792397, 73.8725913379015, 74.09455447555125, 73.29697833943874]","dist_present",56,24,"yes","yes",1680,NA,NA,NA,NA,"NR","NR","lp",NA,NA,NA,NA,NA,NA,"practice",5,"NR","in"
"27",2000.92659999972,40389.2960000003,40389.2960000003,15,15,"n",3,"['1', '5', 'space']","n","#000000","no",428046.5313,1,"neutral","psycho","psycho","psycho",0,"uniform",0,0,0,0,NA,0,0,NA,0,0,0,0,26,26,NA,NA,NA,NA,0,0,0,NA,26,0,26,73.2296414732588,"Thu Oct  7 11:38:46 2021","The main experiment item","yes","red","no","7","circle",NA,"pinging_target_expectations 4.0.osexp","C:\Users\etp-cp-ping\Desktop\LocalPC-EXP",75,"no","mono","no",18,"no","white","no","yes",1050,NA,100,"psycho",26,0,26,"C:/Users/etp-cp-ping/Desktop/LocalPC-EXP/subject-22.csv","psycho",1,27,27,"Lentiform Loewenfeld","3.3.8","['vert', 'hori', 'vert', 'hori', 'vert', 'vert', 'hori', 'hori']","no",209,"None","yes",0,NA,2,"legacy",NA,1024,2,48000,-16,"experiment",22,"even","green","no",5,"diamond",361184.817900001,361215.167400001,361215.206600001,NA,366752.833400001,NA,NA,78227.4970000008,3512.28050000009,NA,78227.5193000005,456176.0381,460105.1574,NA,NA,NA,NA,3512.35830000041,367270.291700001,NA,NA,456176.0528,367641.2693,456175.988800001,"New experiment",19,"[0, 73.52449293950897, 73.35285241237317, 74.61325924116969, 75.96137576367647, 77.9637196367002, 75.95921307373739, 73.29619711968233]","dist_present",56,68,"yes","yes",1680,NA,NA,NA,NA,"NR","NR","lp",NA,NA,NA,NA,NA,NA,"practice",1,"NR","in"
"28",1239.91949999984,41629.2155000002,41629.2155000002,15,15,"n",3,"['1', '5', 'space']","n","#000000","no",428046.5313,1,"neutral","psycho","psycho","psycho",0,"uniform",0,0,0,0,NA,0,0,NA,0,0,0,0,27,27,NA,NA,NA,NA,0,0,0,NA,27,0,27,73.2296414732588,"Thu Oct  7 11:38:46 2021","The main experiment item","yes","green","no","None","circle",NA,"pinging_target_expectations 4.0.osexp","C:\Users\etp-cp-ping\Desktop\LocalPC-EXP",75,"no","mono","no",18,"no","white","no","yes",1050,NA,100,"psycho",27,0,27,"C:/Users/etp-cp-ping/Desktop/LocalPC-EXP/subject-22.csv","psycho",1,28,28,"Lentiform Loewenfeld","3.3.8","['vert', 'vert', 'hori', 'vert', 'hori', 'hori', 'vert', 'hori']","yes",109,"diamond","yes",0,NA,2,"legacy",NA,1024,2,48000,-16,"experiment",22,"even","red","no",3,"diamond",361184.817900001,361215.167400001,361215.206600001,NA,366752.833400001,NA,NA,78227.4970000008,3512.28050000009,NA,78227.5193000005,460135.1326,463089.7008,NA,NA,NA,NA,3512.35830000041,367270.291700001,NA,NA,460135.1469,367641.2693,460135.084,"New experiment",19,"[0, 73.72215847620863, 77.77281256027194, 77.5826234534168, 77.6640472538007, 87.68836866996672, 83.45018113781354, 82.87176309607901, 83.10041594877653, 86.51501997711618, 81.53650926885909, 77.53566423598835, 76.35346991568103, 74.026843226407, 73.56118581890028, 74.07508056719068, 73.27651749610928, 73.35954249016189, 73.41534562769155, 73.59794132836892, 73.91377397946518, 74.1652950756113, 74.110461445099, 74.00954716311713, 73.23020600332666, 73.74887123408416, 75.0821124884169, 74.8772600804088, 73.36408208407717]","dist_absent",56,49,"yes","yes",1680,NA,NA,NA,NA,"NR","NR","lp",NA,"Left",NA,NA,NA,NA,"practice",5,"NR","in"
"29",2000.83029999951,43630.0457999997,43630.0457999997,15,15,"n",3,"['1', '5', 'space']","n","#000000","no",464143.826400001,1,"neutral","psycho","psycho","psycho",0,"uniform",0,0,0,0,NA,0,0,NA,0,0,0,0,28,28,NA,NA,NA,NA,0,0,0,NA,28,0,28,73.2296414732588,"Thu Oct  7 11:38:46 2021","The main experiment item","yes","green","no","3","circle",NA,"pinging_target_expectations 4.0.osexp","C:\Users\etp-cp-ping\Desktop\LocalPC-EXP",75,"no","mono","no",18,"no","white","no","yes",1050,NA,100,"psycho",28,0,28,"C:/Users/etp-cp-ping/Desktop/LocalPC-EXP/subject-22.csv","psycho",2,29,29,"Lentiform Loewenfeld","3.3.8","['hori', 'vert', 'hori', 'vert', 'vert', 'hori', 'hori', 'vert']","yes",109,"circles","yes",0,NA,2,"legacy",NA,1024,2,48000,-16,"experiment",22,"even","red","no",2,"diamond",361184.817900001,361215.167400001,361215.206600001,NA,366752.833400001,NA,NA,78227.4970000008,3512.28050000009,NA,78227.5193000005,463120.0274,466958.0507,NA,NA,NA,NA,3512.35830000041,367270.291700001,NA,NA,463120.0415,367641.2693,463119.978500001,"New experiment",19,"[0, 84.95187039261889, 100.16985001755671, 115.87312399455756, 133.6970183377441, 150.40563991604648, 168.45843087281102, 195.4261977189434, 215.11083978627155, 239.29706303555326, 271.6969553507653, 292.35333893279983, 316.55626162257744, 351.9393937977654, 376.9504448738929, 395.47818012141835, 425.46533380640574, 455.2826468019664, 476.78305177201025, 494.72633824264676, 529.6776589355917, 569.0522268430207, 594.6752373563282, 631.0337931680998, 667.2570200131559, 73.23008950084335, 73.42920257314584, 73.8999459685888, 74.19893850713927, 73.56738736286938, 73.66198793677118, 74.48228289390657, 74.89465618551515, 73.75470794030691, 74.02227950941713, 73.47926305843112, 73.7897642899416, 74.57294149700854, 74.12323549689455, 74.13263844958466, 75.30187624434468, 76.16724356913612, 76.00241752393838, 74.53487764691126, 73.47066423694642, 74.39576910971537, 74.47803347768671, 75.43375923597398, 74.4422863962882, 74.85272481745707, 75.32927717693832]","dist_present",56,34,"yes","yes",1680,NA,NA,NA,NA,"NR","NR","lp",NA,NA,NA,NA,NA,NA,"practice",3,"NR","in"
"30",1951.59619999956,45581.6419999992,45581.6419999992,15,15,"n",3,"['1', '5', 'space']","n","#000000","no",467632.8677,1,"neutral","psycho","psycho","psycho",0,"uniform",0,0,0,0,NA,0,0,NA,0,0,0,0,29,29,NA,NA,NA,NA,0,0,0,NA,29,0,29,73.2296414732588,"Thu Oct  7 11:38:46 2021","The main experiment item","yes","red","no","3","diamond",NA,"pinging_target_expectations 4.0.osexp","C:\Users\etp-cp-ping\Desktop\LocalPC-EXP",75,"no","mono","no",18,"no","white","no","yes",1050,NA,100,"psycho",29,0,29,"C:/Users/etp-cp-ping/Desktop/LocalPC-EXP/subject-22.csv","psycho",3,30,30,"Lentiform Loewenfeld","3.3.8","['hori', 'hori', 'hori', 'vert', 'vert', 'hori', 'vert', 'vert']","no",209,"None","yes",0,NA,2,"legacy",NA,1024,2,48000,-16,"experiment",22,"even","green","no",2,"circle",361184.817900001,361215.167400001,361215.206600001,NA,366752.833400001,NA,NA,78227.4970000008,3512.28050000009,NA,78227.5193000005,466988.0178,470833.728500001,NA,NA,NA,NA,3512.35830000041,367270.291700001,NA,NA,466988.0324,367641.2693,466987.9692,"New experiment",19,"[0]","dist_present",56,34,"yes","yes",1680,NA,NA,NA,NA,"R","R","lp",NA,NA,NA,NA,NA,NA,"practice",2,"NR","in"
"31",993.175399999949,46574.8173999992,46574.8173999992,15,15,"n",3,"['1', '5', 'space']","n","#000000","no",467632.8677,1,"neutral","psycho","psycho","psycho",0,"uniform",0,0,0,0,NA,0,0,NA,0,0,0,0,30,30,NA,NA,NA,NA,0,0,0,NA,30,0,30,73.2296414732588,"Thu Oct  7 11:38:46 2021","The main experiment item","yes","green","no","5","diamond",NA,"pinging_target_expectations 4.0.osexp","C:\Users\etp-cp-ping\Desktop\LocalPC-EXP",75,"no","mono","no",18,"no","white","no","yes",1050,NA,100,"psycho",30,0,30,"C:/Users/etp-cp-ping/Desktop/LocalPC-EXP/subject-22.csv","psycho",3,31,31,"Lentiform Loewenfeld","3.3.8","['hori', 'vert', 'hori', 'vert', 'vert', 'hori', 'hori', 'vert']","yes",109,"diamond","yes",0,NA,2,"legacy",NA,1024,2,48000,-16,"experiment",22,"even","red","no",1,"circle",361184.817900001,361215.167400001,361215.206600001,NA,366752.833400001,NA,NA,78227.4970000008,3512.28050000009,NA,78227.5193000005,470863.9424,473729.6741,NA,NA,NA,NA,3512.35830000041,367270.291700001,NA,NA,470863.9571,367641.2693,470863.8927,"New experiment",19,"[0, 73.62202432574819, 73.79569112299889, 73.6595603274756, 74.4694295335968]","dist_present",56,26,"yes","yes",1680,NA,NA,NA,NA,"NR","NR","lp",NA,NA,NA,NA,NA,NA,"practice",2,"R","in"
"32",1669.73750000034,48244.5548999995,48244.5548999995,16,16,"n",3,"['1', '5', 'space']","n","#000000","no",467632.8677,1,"neutral","psycho","psycho","psycho",0,"uniform",1,0,0,0,NA,0,0,NA,0,0,0,0,31,31,NA,NA,NA,NA,0,0,0,NA,31,0,31,73.2296414732588,"Thu Oct  7 11:38:46 2021","The main experiment item","yes","red","no","5","circle",NA,"pinging_target_expectations 4.0.osexp","C:\Users\etp-cp-ping\Desktop\LocalPC-EXP",75,"no","mono","no",18,"no","white","no","yes",1050,NA,100,"psycho",31,0,31,"C:/Users/etp-cp-ping/Desktop/LocalPC-EXP/subject-22.csv","psycho",3,32,32,"Lentiform Loewenfeld","3.3.8","['vert', 'hori', 'hori', 'hori', 'vert', 'vert', 'vert', 'hori']","no",209,"None","yes",0,NA,2,"legacy",NA,1024,2,48000,-16,"experiment",22,"even","green","no",3,"diamond",361184.817900001,361215.167400001,361215.206600001,NA,366752.833400001,NA,NA,78227.4970000008,3512.28050000009,NA,78227.5193000005,473761.2951,477425.699400001,NA,NA,NA,NA,3512.35830000041,367270.291700001,NA,NA,473761.3096,367641.2693,473761.245600001,"New experiment",19,"[0]","dist_present",56,46,"yes","yes",1680,NA,NA,NA,NA,"NR","R","lp",NA,NA,NA,NA,NA,NA,"practice",1,"NR","in"
"33",1302.59440000006,49547.1492999996,49547.1492999996,17,17,"n",3,"['1', '5', 'space']","n","#000000","no",467632.8677,1,"neutral","psycho","psycho","psycho",0,"uniform",1,0,0,0,NA,0,0,NA,0,0,0,0,32,32,NA,NA,NA,NA,0,0,0,NA,32,0,32,73.2296414732588,"Thu Oct  7 11:38:46 2021","The main experiment item","yes","green","no","None","circle",NA,"pinging_target_expectations 4.0.osexp","C:\Users\etp-cp-ping\Desktop\LocalPC-EXP",75,"no","mono","no",18,"no","white","no","yes",1050,NA,100,"psycho",32,0,32,"C:/Users/etp-cp-ping/Desktop/LocalPC-EXP/subject-22.csv","psycho",3,33,33,"Lentiform Loewenfeld","3.3.8","['vert', 'hori', 'vert', 'hori', 'vert', 'hori', 'hori', 'vert']","no",209,"None","yes",0,NA,2,"legacy",NA,1024,2,48000,-16,"experiment",22,"even","red","no",3,"diamond",361184.817900001,361215.167400001,361215.206600001,NA,366752.833400001,NA,NA,78227.4970000008,3512.28050000009,NA,78227.5193000005,477455.8248,480849.823500001,NA,NA,NA,NA,3512.35830000041,367270.291700001,NA,NA,477455.839300001,367641.2693,477455.774700001,"New experiment",19,"[0]","dist_absent",56,49,"yes","yes",1680,NA,NA,NA,NA,"R","NR","lp",NA,"Left",NA,NA,NA,NA,"practice",3,"NR","in"
"34",1670.7851000001,51217.9343999997,51217.9343999997,18,18,"n",3,"['1', '5', 'space']","n","#000000","no",467632.8677,1,"neutral","psycho","psycho","psycho",0,"uniform",1,0,0,0,NA,0,0,NA,0,0,0,0,33,33,NA,NA,NA,NA,0,0,0,NA,33,0,33,73.2296414732588,"Thu Oct  7 11:38:46 2021","The main experiment item","yes","green","no","None","diamond",NA,"pinging_target_expectations 4.0.osexp","C:\Users\etp-cp-ping\Desktop\LocalPC-EXP",75,"no","mono","no",18,"no","white","no","yes",1050,NA,100,"psycho",33,0,33,"C:/Users/etp-cp-ping/Desktop/LocalPC-EXP/subject-22.csv","psycho",3,34,34,"Lentiform Loewenfeld","3.3.8","['hori', 'vert', 'vert', 'hori', 'vert', 'hori', 'hori', 'vert']","yes",109,"circles","yes",0,NA,2,"legacy",NA,1024,2,48000,-16,"experiment",22,"even","red","no",2,"circle",361184.817900001,361215.167400001,361215.206600001,NA,366752.833400001,NA,NA,78227.4970000008,3512.28050000009,NA,78227.5193000005,480880.081300001,484385.7415,NA,NA,NA,NA,3512.35830000041,367270.291700001,NA,NA,480880.0981,367641.2693,480880.0337,"New experiment",19,"[0]","dist_absent",56,39,"yes","yes",1680,NA,NA,NA,NA,"NR","R","lp",NA,"Left",NA,"Left",NA,NA,"practice",3,"R","in"
"35",1346.68909999978,52564.6234999995,52564.6234999995,19,19,"n",3,"['1', '5', 'space']","n","#000000","no",467632.8677,1,"neutral","psycho","psycho","psycho",0,"uniform",1,0,0,0,NA,0,0,NA,0,0,0,0,34,34,NA,NA,NA,NA,0,0,0,NA,34,0,34,73.2296414732588,"Thu Oct  7 11:38:46 2021","The main experiment item","yes","green","no","None","diamond",NA,"pinging_target_expectations 4.0.osexp","C:\Users\etp-cp-ping\Desktop\LocalPC-EXP",75,"no","mono","no",18,"no","white","no","yes",1050,NA,100,"psycho",34,0,34,"C:/Users/etp-cp-ping/Desktop/LocalPC-EXP/subject-22.csv","psycho",3,35,35,"Lentiform Loewenfeld","3.3.8","['vert', 'hori', 'hori', 'hori', 'vert', 'hori', 'vert', 'vert']","yes",109,"circles","yes",0,NA,2,"legacy",NA,1024,2,48000,-16,"experiment",22,"even","red","no",0,"circle",361184.817900001,361215.167400001,361215.206600001,NA,366752.833400001,NA,NA,78227.4970000008,3512.28050000009,NA,78227.5193000005,484415.8741,487713.751800001,NA,NA,NA,NA,3512.35830000041,367270.291700001,NA,NA,484415.8886,367641.2693,484415.8237,"New experiment",19,"[0, 73.78622230174882, 73.6543745866638, 76.08443837405558, 75.47423608424293, 76.03183980453616, 81.63329931248259, 84.6399183530397, 84.93996084436897, 84.44695443172073, 85.61497186943274, 85.4550398053011, 83.93868171956565, 83.97935881822288, 79.02049257673899, 81.30583697359441, 81.93491883985281, 81.03552588265669, 81.25872807687905, 81.3928607331165, 83.45637116884791, 83.54380156412437, 80.28261212017256, 81.26923316530981, 80.99658957001462, 79.77927461873607, 76.84815629523399, 76.12127117176166, 75.23729866788167, 74.97948169854126, 73.91847911839048, 74.004651491531, 75.84517778773079, 75.92955856430535, 74.08594692476152, 73.50026176146623, 73.4472464027793, 73.70187561050595, 73.60250904948285, 73.5367095827026, 73.58325885612477, 73.71839100167058, 76.83385722590717, 73.85046761790315]","dist_absent",56,19,"yes","yes",1680,NA,NA,NA,NA,"NR","R","lp",NA,NA,NA,NA,NA,NA,"practice",2,"NR","in"
"36",2000.27339999995,54564.8968999994,54564.8968999994,19,19,"n",3,"['1', '5', 'space']","n","#000000","no",467632.8677,1,"neutral","psycho","psycho","psycho",0,"uniform",0,0,0,0,NA,0,0,NA,0,0,0,0,35,35,NA,NA,NA,NA,0,0,0,NA,35,0,35,73.2296414732588,"Thu Oct  7 11:38:46 2021","The main experiment item","yes","green","no","4","diamond",NA,"pinging_target_expectations 4.0.osexp","C:\Users\etp-cp-ping\Desktop\LocalPC-EXP",75,"no","mono","no",18,"no","white","no","yes",1050,NA,100,"psycho",35,0,35,"C:/Users/etp-cp-ping/Desktop/LocalPC-EXP/subject-22.csv","psycho",3,36,36,"Lentiform Loewenfeld","3.3.8","['hori', 'vert', 'hori', 'hori', 'vert', 'vert', 'hori', 'vert']","yes",109,"circles","yes",0,NA,2,"legacy",NA,1024,2,48000,-16,"experiment",22,"even","red","no",1,"circle",361184.817900001,361215.167400001,361215.206600001,NA,366752.833400001,NA,NA,78227.4970000008,3512.28050000009,NA,78227.5193000005,487743.965000001,491403.8688,NA,NA,NA,NA,3512.35830000041,367270.291700001,NA,NA,487743.9793,367641.2693,487743.915200001,"New experiment",19,"[0]","dist_present",56,25,"yes","yes",1680,NA,NA,NA,NA,"NR","NR","lp",NA,"Left",NA,NA,NA,NA,"practice",0,"NR","in"
"37",1358.74349999992,55923.6403999993,55923.6403999993,19,19,"n",3,"['1', '5', 'space']","n","#000000","no",492091.9196,1,"neutral","psycho","psycho","psycho",0,"uniform",0,0,0,0,NA,0,0,NA,0,0,0,0,36,36,NA,NA,NA,NA,0,0,0,NA,36,0,36,73.2296414732588,"Thu Oct  7 11:38:46 2021","The main experiment item","yes","green","no","7","diamond",NA,"pinging_target_expectations 4.0.osexp","C:\Users\etp-cp-ping\Desktop\LocalPC-EXP",75,"no","mono","no",18,"no","white","no","yes",1050,NA,100,"psycho",36,0,36,"C:/Users/etp-cp-ping/Desktop/LocalPC-EXP/subject-22.csv","psycho",4,37,37,"Lentiform Loewenfeld","3.3.8","['hori', 'vert', 'hori', 'vert', 'hori', 'vert', 'hori', 'vert']","no",209,"None","yes",0,NA,2,"legacy",NA,1024,2,48000,-16,"experiment",22,"even","red","no",5,"circle",361184.817900001,361215.167400001,361215.206600001,NA,366752.833400001,NA,NA,78227.4970000008,3512.28050000009,NA,78227.5193000005,491435.362200001,494689.885100001,NA,NA,NA,NA,3512.35830000041,367270.291700001,NA,NA,491435.3767,367641.2693,491435.3147,"New experiment",19,"[0, 78.39699699723033, 75.63420167741049, 76.30097210866131, 75.63736132670702, 73.29842834869456, 73.35529974037323, 73.37708086381261, 73.88746034934206, 74.73006390451016, 74.59524931725419, 74.99793879003646, 73.74333378241079, 73.65549836207167, 73.53586626898687, 73.28003303893972, 74.28282696120151, 73.74942435554148, 73.79161208538774, 73.70346817282963, 75.62465434451063, 76.87667904194491, 73.79060935052006, 73.83564454100676, 73.52634632236433, 73.71839100167058, 73.29640608196179, 73.24870455172905, 73.61552814377863, 73.32971902899833, 91.04044516724748, 106.73446083339381, 127.61755874027787, 144.1739506444694, 177.8333171442393, 206.90695711795033, 230.21496083738904, 254.83815250980282, 290.13658474100873, 312.296795401376, 344.859229910684, 362.5998650324939, 392.5123932657262, 424.41246395522774, 459.4826308488254, 490.8471167894827, 525.6474929951536, 569.8920800427993, 606.8786031006265, 73.96389292117664, 73.61254974845896, 74.48658879557163, 73.62479642208457, 74.17712697990488, 74.91468062108142, 74.40390655762172, 74.24957912338628, 74.2528116247458, 75.39363773125521, 74.58272302110245, 74.04120964921188, 73.47005752704655, 74.20006273786377, 75.80198751375391, 75.66095432761817, 73.63102239203522, 74.21052454419916, 74.07699200581172]","dist_present",56,68,"yes","yes",1680,NA,NA,NA,NA,"NR","NR","lp",NA,NA,NA,NA,NA,NA,"practice",1,"NR","in"
"38",2000.84710000007,57924.4874999994,57924.4874999994,19,19,"n",3,"['1', '5', 'space']","n","#000000","no",492091.9196,1,"neutral","psycho","psycho","psycho",0,"uniform",0,0,0,0,NA,0,0,NA,0,0,0,0,37,37,NA,NA,NA,NA,0,0,0,NA,37,0,37,73.2296414732588,"Thu Oct  7 11:38:46 2021","The main experiment item","yes","green","no","7","circle",NA,"pinging_target_expectations 4.0.osexp","C:\Users\etp-cp-ping\Desktop\LocalPC-EXP",75,"no","mono","no",18,"no","white","no","yes",1050,NA,100,"psycho",37,0,37,"C:/Users/etp-cp-ping/Desktop/LocalPC-EXP/subject-22.csv","psycho",4,38,38,"Lentiform Loewenfeld","3.3.8","['hori', 'vert', 'vert', 'hori', 'hori', 'vert', 'hori', 'vert']","no",209,"None","yes",0,NA,2,"legacy",NA,1024,2,48000,-16,"experiment",22,"even","red","no",0,"diamond",361184.817900001,361215.167400001,361215.206600001,NA,366752.833400001,NA,NA,78227.4970000008,3512.28050000009,NA,78227.5193000005,494720.0903,498560.328000001,NA,NA,NA,NA,3512.35830000041,367270.291700001,NA,NA,494720.107100001,367641.2693,494720.0407,"New experiment",19,"[0]","dist_present",56,18,"yes","yes",1680,NA,NA,NA,NA,"NR","R","lp","Right",NA,NA,NA,NA,NA,"practice",5,"NR","in"
"39",1228.8814000003,59153.3688999997,59153.3688999997,20,20,"n",3,"['1', '5', 'space']","n","#000000","no",492091.9196,1,"neutral","psycho","psycho","psycho",0,"uniform",1,0,0,0,NA,0,0,NA,0,0,0,0,38,38,NA,NA,NA,NA,0,0,0,NA,38,0,38,73.2296414732588,"Thu Oct  7 11:38:46 2021","The main experiment item","yes","red","no","0","circle",NA,"pinging_target_expectations 4.0.osexp","C:\Users\etp-cp-ping\Desktop\LocalPC-EXP",75,"no","mono","no",18,"no","white","no","yes",1050,NA,100,"psycho",38,0,38,"C:/Users/etp-cp-ping/Desktop/LocalPC-EXP/subject-22.csv","psycho",4,39,39,"Lentiform Loewenfeld","3.3.8","['vert', 'vert', 'vert', 'hori', 'hori', 'hori', 'vert', 'hori']","yes",109,"diamond","yes",0,NA,2,"legacy",NA,1024,2,48000,-16,"experiment",22,"even","green","no",1,"diamond",361184.817900001,361215.167400001,361215.206600001,NA,366752.833400001,NA,NA,78227.4970000008,3512.28050000009,NA,78227.5193000005,498590.246100001,501649.784300001,NA,NA,NA,NA,3512.35830000041,367270.291700001,NA,NA,498590.260600001,367641.2693,498590.1976,"New experiment",19,"[0]","dist_present",56,21,"yes","yes",1680,NA,NA,NA,NA,"NR","NR","lp",NA,"Left",NA,NA,NA,NA,"practice",0,"NR","in"
"40",1249.99970000045,60403.3686000002,60403.3686000002,21,21,"n",3,"['1', '5', 'space']","n","#000000","no",492091.9196,1,"neutral","psycho","psycho","psycho",0,"uniform",1,0,0,0,NA,0,0,NA,0,0,0,0,39,39,NA,NA,NA,NA,0,0,0,NA,39,0,39,73.2296414732588,"Thu Oct  7 11:38:46 2021","The main experiment item","yes","red","no","5","circle",NA,"pinging_target_expectations 4.0.osexp","C:\Users\etp-cp-ping\Desktop\LocalPC-EXP",75,"no","mono","no",18,"no","white","no","yes",1050,NA,100,"psycho",39,0,39,"C:/Users/etp-cp-ping/Desktop/LocalPC-EXP/subject-22.csv","psycho",4,40,40,"Lentiform Loewenfeld","3.3.8","['hori', 'hori', 'hori', 'vert', 'vert', 'hori', 'vert', 'vert']","yes",109,"diamond","yes",0,NA,2,"legacy",NA,1024,2,48000,-16,"experiment",22,"even","green","no",7,"diamond",361184.817900001,361215.167400001,361215.206600001,NA,366752.833400001,NA,NA,78227.4970000008,3512.28050000009,NA,78227.5193000005,501680.053,504769.729000001,NA,NA,NA,NA,3512.35830000041,367270.291700001,NA,NA,501680.0676,367641.2693,501680.003400001,"New experiment",19,"[0]","dist_present",56,86,"yes","yes",1680,NA,NA,NA,NA,"NR","NR","lp",NA,NA,NA,NA,NA,NA,"practice",1,"NR","in"
"41",1782.33209999965,62185.7006999998,62185.7006999998,21,21,"n",3,"['1', '5', 'space']","n","#000000","no",492091.9196,1,"neutral","psycho","psycho","psycho",0,"uniform",0,0,0,0,NA,0,0,NA,0,0,0,0,40,40,NA,NA,NA,NA,0,0,0,NA,40,0,40,73.2296414732588,"Thu Oct  7 11:38:46 2021","The main experiment item","yes","green","no","0","diamond",NA,"pinging_target_expectations 4.0.osexp","C:\Users\etp-cp-ping\Desktop\LocalPC-EXP",75,"no","mono","no",18,"no","white","no","yes",1050,NA,100,"psycho",40,0,40,"C:/Users/etp-cp-ping/Desktop/LocalPC-EXP/subject-22.csv","psycho",4,41,41,"Lentiform Loewenfeld","3.3.8","['vert', 'hori', 'vert', 'hori', 'hori', 'hori', 'vert', 'vert']","no",209,"None","yes",0,NA,2,"legacy",NA,1024,2,48000,-16,"experiment",22,"even","red","no",6,"circle",361184.817900001,361215.167400001,361215.206600001,NA,366752.833400001,NA,NA,78227.4970000008,3512.28050000009,NA,78227.5193000005,504799.8057,508721.731400001,NA,NA,NA,NA,3512.35830000041,367270.291700001,NA,NA,504799.8204,367641.2693,504799.756300001,"New experiment",19,"[0]","dist_present",56,71,"yes","yes",1680,NA,NA,NA,NA,"NR","NR","lp",NA,"Right",NA,"Right",NA,NA,"practice",7,"NR","in"
"42",1294.43340000039,63480.1341000002,63480.1341000002,21,21,"n",3,"['1', '5', 'space']","n","#000000","no",492091.9196,1,"neutral","psycho","psycho","psycho",0,"uniform",0,0,0,0,NA,0,0,NA,0,0,0,0,41,41,NA,NA,NA,NA,0,0,0,NA,41,0,41,73.2296414732588,"Thu Oct  7 11:38:46 2021","The main experiment item","yes","red","no","6","diamond",NA,"pinging_target_expectations 4.0.osexp","C:\Users\etp-cp-ping\Desktop\LocalPC-EXP",75,"no","mono","no",18,"no","white","no","yes",1050,NA,100,"psycho",41,0,41,"C:/Users/etp-cp-ping/Desktop/LocalPC-EXP/subject-22.csv","psycho",4,42,42,"Lentiform Loewenfeld","3.3.8","['hori', 'vert', 'hori', 'vert', 'hori', 'vert', 'vert', 'hori']","yes",109,"circles","yes",0,NA,2,"legacy",NA,1024,2,48000,-16,"experiment",22,"even","green","no",0,"circle",361184.817900001,361215.167400001,361215.206600001,NA,366752.833400001,NA,NA,78227.4970000008,3512.28050000009,NA,78227.5193000005,508751.913100001,511953.770900001,NA,NA,NA,NA,3512.35830000041,367270.291700001,NA,NA,508751.928000001,367641.2693,508751.8643,"New experiment",19,"[0]","dist_present",56,17,"yes","yes",1680,NA,NA,NA,NA,"NR","NR","lp","Right",NA,"Right",NA,NA,NA,"practice",6,"NR","in"
"43",1775.13760000054,65255.2717000007,65255.2717000007,22,22,"n",3,"['1', '5', 'space']","n","#000000","no",492091.9196,1,"neutral","psycho","psycho","psycho",0,"uniform",1,0,0,0,NA,0,0,NA,0,0,0,0,42,42,NA,NA,NA,NA,0,0,0,NA,42,0,42,73.2296414732588,"Thu Oct  7 11:38:46 2021","The main experiment item","yes","green","no","1","circle",NA,"pinging_target_expectations 4.0.osexp","C:\Users\etp-cp-ping\Desktop\LocalPC-EXP",75,"no","mono","no",18,"no","white","no","yes",1050,NA,100,"psycho",42,0,42,"C:/Users/etp-cp-ping/Desktop/LocalPC-EXP/subject-22.csv","psycho",4,43,43,"Lentiform Loewenfeld","3.3.8","['vert', 'hori', 'vert', 'hori', 'vert', 'vert', 'hori', 'hori']","no",209,"None","yes",0,NA,2,"legacy",NA,1024,2,48000,-16,"experiment",22,"even","red","no",3,"diamond",361184.817900001,361215.167400001,361215.206600001,NA,366752.833400001,NA,NA,78227.4970000008,3512.28050000009,NA,78227.5193000005,511985.4708,515761.749200001,NA,NA,NA,NA,3512.35830000041,367270.291700001,NA,NA,511985.485200001,367641.2693,511985.420700001,"New experiment",19,"[0]","dist_present",56,42,"yes","yes",1680,NA,NA,NA,NA,"NR","NR","lp",NA,NA,NA,NA,NA,NA,"practice",0,"NR","in"
"44",1252.94639999996,66508.2181000007,66508.2181000007,22,22,"n",3,"['1', '5', 'space']","n","#000000","no",492091.9196,1,"neutral","psycho","psycho","psycho",0,"uniform",0,0,0,0,NA,0,0,NA,0,0,0,0,43,43,NA,NA,NA,NA,0,0,0,NA,43,0,43,73.2296414732588,"Thu Oct  7 11:38:46 2021","The main experiment item","yes","red","no","0","circle",NA,"pinging_target_expectations 4.0.osexp","C:\Users\etp-cp-ping\Desktop\LocalPC-EXP",75,"no","mono","no",18,"no","white","no","yes",1050,NA,100,"psycho",43,0,43,"C:/Users/etp-cp-ping/Desktop/LocalPC-EXP/subject-22.csv","psycho",4,44,44,"Lentiform Loewenfeld","3.3.8","['hori', 'vert', 'vert', 'vert', 'hori', 'vert', 'hori', 'hori']","yes",109,"circles","yes",0,NA,2,"legacy",NA,1024,2,48000,-16,"experiment",22,"even","green","no",6,"diamond",361184.817900001,361215.167400001,361215.206600001,NA,366752.833400001,NA,NA,78227.4970000008,3512.28050000009,NA,78227.5193000005,515792.234400001,518689.729600001,NA,NA,NA,NA,3512.35830000041,367270.291700001,NA,NA,515792.249100001,367641.2693,515792.1849,"New experiment",19,"[0]","dist_present",56,71,"yes","yes",1680,NA,NA,NA,NA,"NR","NR","lp",NA,"Right",NA,"Right",NA,NA,"practice",3,"NR","in"
"45",1200.09029999987,67708.3084000006,67708.3084000006,23,23,"n",3,"['1', '5', 'space']","n","#000000","no",492091.9196,1,"neutral","psycho","psycho","psycho",0,"uniform",1,0,0,0,NA,0,0,NA,0,0,0,0,44,44,NA,NA,NA,NA,0,0,0,NA,44,0,44,73.2296414732588,"Thu Oct  7 11:38:46 2021","The main experiment item","yes","red","no","None","diamond",NA,"pinging_target_expectations 4.0.osexp","C:\Users\etp-cp-ping\Desktop\LocalPC-EXP",75,"no","mono","no",18,"no","white","no","yes",1050,NA,100,"psycho",44,0,44,"C:/Users/etp-cp-ping/Desktop/LocalPC-EXP/subject-22.csv","psycho",4,45,45,"Lentiform Loewenfeld","3.3.8","['hori', 'vert', 'vert', 'hori', 'hori', 'hori', 'vert', 'vert']","yes",109,"circles","yes",0,NA,2,"legacy",NA,1024,2,48000,-16,"experiment",22,"even","green","no",5,"circle",361184.817900001,361215.167400001,361215.206600001,NA,366752.833400001,NA,NA,78227.4970000008,3512.28050000009,NA,78227.5193000005,518719.825200001,521921.798400001,NA,NA,NA,NA,3512.35830000041,367270.291700001,NA,NA,518719.8397,367641.2693,518719.7752,"New experiment",19,"[0]","dist_absent",56,69,"yes","yes",1680,NA,NA,NA,NA,"NR","NR","lp",NA,"Right",NA,NA,NA,NA,"practice",6,"NR","in"
"46",1882.19340000069,69590.5018000012,69590.5018000012,24,24,"n",3,"['1', '5', 'space']","n","#000000","no",492091.9196,1,"neutral","psycho","psycho","psycho",0,"uniform",1,0,0,0,NA,0,0,NA,0,0,0,0,45,45,NA,NA,NA,NA,0,0,0,NA,45,0,45,73.2296414732588,"Thu Oct  7 11:38:46 2021","The main experiment item","yes","red","no","None","circle",NA,"pinging_target_expectations 4.0.osexp","C:\Users\etp-cp-ping\Desktop\LocalPC-EXP",75,"no","mono","no",18,"no","white","no","yes",1050,NA,100,"psycho",45,0,45,"C:/Users/etp-cp-ping/Desktop/LocalPC-EXP/subject-22.csv","psycho",4,46,46,"Lentiform Loewenfeld","3.3.8","['vert', 'hori', 'vert', 'hori', 'hori', 'vert', 'vert', 'hori']","yes",109,"circles","yes",0,NA,2,"legacy",NA,1024,2,48000,-16,"experiment",22,"even","green","no",1,"diamond",361184.817900001,361215.167400001,361215.206600001,NA,366752.833400001,NA,NA,78227.4970000008,3512.28050000009,NA,78227.5193000005,521952.088800001,525649.895400001,NA,NA,NA,NA,3512.35830000041,367270.291700001,NA,NA,521952.1032,367641.2693,521952.038500001,"New experiment",19,"[0]","dist_absent",56,29,"yes","yes",1680,NA,NA,NA,NA,"NR","R","lp",NA,"Left",NA,NA,NA,NA,"practice",5,"NR","in"
"47",1608.35140000016,71198.8532000014,71198.8532000014,25,25,"n",3,"['1', '5', 'space']","n","#000000","no",492091.9196,1,"neutral","psycho","psycho","psycho",0,"uniform",1,0,0,0,NA,0,0,NA,0,0,0,0,46,46,NA,NA,NA,NA,0,0,0,NA,46,0,46,73.2296414732588,"Thu Oct  7 11:38:46 2021","The main experiment item","yes","green","no","2","circle",NA,"pinging_target_expectations 4.0.osexp","C:\Users\etp-cp-ping\Desktop\LocalPC-EXP",75,"no","mono","no",18,"no","white","no","yes",1050,NA,100,"psycho",46,0,46,"C:/Users/etp-cp-ping/Desktop/LocalPC-EXP/subject-22.csv","psycho",4,47,47,"Lentiform Loewenfeld","3.3.8","['vert', 'vert', 'hori', 'hori', 'hori', 'vert', 'hori', 'vert']","yes",109,"circles","yes",0,NA,2,"legacy",NA,1024,2,48000,-16,"experiment",22,"even","red","no",3,"diamond",361184.817900001,361215.167400001,361215.206600001,NA,366752.833400001,NA,NA,78227.4970000008,3512.28050000009,NA,78227.5193000005,525680.294500001,529073.760300001,NA,NA,NA,NA,3512.35830000041,367270.291700001,NA,NA,525680.3089,367641.2693,525680.2444,"New experiment",19,"[0, 74.9917298337428, 76.38269628328487]","dist_present",56,43,"yes","yes",1680,NA,NA,NA,NA,"NR","NR","lp",NA,NA,NA,NA,NA,NA,"practice",1,"NR","in"
"48",1493.63670000003,72692.4899000014,72692.4899000014,26,26,"n",3,"['1', '5', 'space']","n","#000000","no",492091.9196,1,"neutral","psycho","psycho","psycho",0,"uniform",1,0,0,0,NA,0,0,NA,0,0,0,0,47,47,NA,NA,NA,NA,0,0,0,NA,47,0,47,73.2296414732588,"Thu Oct  7 11:38:46 2021","The main experiment item","yes","red","no","1","diamond",NA,"pinging_target_expectations 4.0.osexp","C:\Users\etp-cp-ping\Desktop\LocalPC-EXP",75,"no","mono","no",18,"no","white","no","yes",1050,NA,100,"psycho",47,0,47,"C:/Users/etp-cp-ping/Desktop/LocalPC-EXP/subject-22.csv","psycho",4,48,48,"Lentiform Loewenfeld","3.3.8","['hori', 'hori', 'vert', 'vert', 'vert', 'hori', 'hori', 'vert']","yes",109,"diamond","yes",0,NA,2,"legacy",NA,1024,2,48000,-16,"experiment",22,"even","green","no",6,"circle",361184.817900001,361215.167400001,361215.206600001,NA,366752.833400001,NA,NA,78227.4970000008,3512.28050000009,NA,78227.5193000005,529103.9421,532561.799700001,NA,NA,NA,NA,3512.35830000041,367270.291700001,NA,NA,529103.956600001,367641.2693,529103.8919,"New experiment",19,"[0, 74.80808779804494, 78.04318545771224, 78.35369659448287, 78.08737744107654, 77.96202488531867, 78.64002939746118, 79.52258265639955, 79.76064556568437, 78.07599238663727, 80.60186496593218, 82.3153272222356, 82.18772673299671, 82.11119181357135, 81.98249662835516, 80.68765892764148, 77.65474480589823, 76.8151823693225, 74.07699200581172]","dist_present",56,72,"yes","yes",1680,NA,NA,NA,NA,"NR","NR","lp",NA,NA,NA,NA,NA,NA,"practice",3,"NR","in"
"49",2000.19319999951,74692.683100001,74692.683100001,26,26,"n",3,"['1', '5', 'space']","n","#000000","no",492091.9196,1,"neutral","psycho","psycho","psycho",0,"uniform",0,0,0,0,NA,0,0,NA,0,0,0,0,48,48,NA,NA,NA,NA,0,0,0,NA,48,0,48,73.2296414732588,"Thu Oct  7 11:38:46 2021","The main experiment item","yes","green","no","None","diamond",NA,"pinging_target_expectations 4.0.osexp","C:\Users\etp-cp-ping\Desktop\LocalPC-EXP",75,"no","mono","no",18,"no","white","no","yes",1050,NA,100,"psycho",48,0,48,"C:/Users/etp-cp-ping/Desktop/LocalPC-EXP/subject-22.csv","psycho",4,49,49,"Lentiform Loewenfeld","3.3.8","['hori', 'vert', 'vert', 'vert', 'hori', 'vert', 'hori', 'hori']","yes",109,"circles","yes",0,NA,2,"legacy",NA,1024,2,48000,-16,"experiment",22,"even","red","no",1,"circle",361184.817900001,361215.167400001,361215.206600001,NA,366752.833400001,NA,NA,78227.4970000008,3512.28050000009,NA,78227.5193000005,532592.2329,536639.263100001,NA,NA,NA,NA,3512.35830000041,367270.291700001,NA,NA,532592.247400001,367641.2693,532592.1838,"New experiment",19,"[0]","dist_absent",56,29,"yes","yes",1680,NA,NA,NA,NA,"NR","NR","lp",NA,"Left",NA,NA,NA,NA,"practice",6,"NR","in"
"50",1216.98329999985,75909.6664000008,75909.6664000008,27,27,"n",3,"['1', '5', 'space']","n","#000000","no",492091.9196,1,"neutral","psycho","psycho","psycho",0,"uniform",1,0,0,0,NA,0,0,NA,0,0,0,0,49,49,NA,NA,NA,NA,0,0,0,NA,49,0,49,73.2296414732588,"Thu Oct  7 11:38:46 2021","The main experiment item","yes","green","no","4","circle",NA,"pinging_target_expectations 4.0.osexp","C:\Users\etp-cp-ping\Desktop\LocalPC-EXP",75,"no","mono","no",18,"no","white","no","yes",1050,NA,100,"psycho",49,0,49,"C:/Users/etp-cp-ping/Desktop/LocalPC-EXP/subject-22.csv","psycho",4,50,50,"Lentiform Loewenfeld","3.3.8","['hori', 'vert', 'vert', 'hori', 'hori', 'vert', 'hori', 'vert']","no",209,"None","yes",0,NA,2,"legacy",NA,1024,2,48000,-16,"experiment",22,"even","red","no",0,"diamond",361184.817900001,361215.167400001,361215.206600001,NA,366752.833400001,NA,NA,78227.4970000008,3512.28050000009,NA,78227.5193000005,536669.344600001,539633.772100001,NA,NA,NA,NA,3512.35830000041,367270.291700001,NA,NA,536669.359,367641.2693,536669.295600001,"New experiment",19,"[0, 74.24370628116284, 73.22976819706626, 73.37259866505636]","dist_present",56,15,"yes","yes",1680,NA,NA,NA,NA,"NR","NR","lp",NA,NA,NA,NA,NA,NA,"practice",1,"NR","in"
"51",1220.6684000002,77130.334800001,77130.334800001,28,28,"n",3,"['1', '5', 'space']","n","#000000","no",492091.9196,1,"neutral","psycho","psycho","psycho",0,"uniform",1,0,0,0,NA,0,0,NA,0,0,0,0,50,50,NA,NA,NA,NA,0,0,0,NA,50,0,50,73.2296414732588,"Thu Oct  7 11:38:46 2021","The main experiment item","yes","green","no","None","circle",NA,"pinging_target_expectations 4.0.osexp","C:\Users\etp-cp-ping\Desktop\LocalPC-EXP",75,"no","mono","no",18,"no","white","no","yes",1050,NA,100,"psycho",50,0,50,"C:/Users/etp-cp-ping/Desktop/LocalPC-EXP/subject-22.csv","psycho",4,51,51,"Lentiform Loewenfeld","3.3.8","['vert', 'hori', 'vert', 'hori', 'hori', 'vert', 'hori', 'vert']","yes",109,"diamond","yes",0,NA,2,"legacy",NA,1024,2,48000,-16,"experiment",22,"even","red","no",5,"diamond",361184.817900001,361215.167400001,361215.206600001,NA,366752.833400001,NA,NA,78227.4970000008,3512.28050000009,NA,78227.5193000005,539664.136300001,542817.9178,NA,NA,NA,NA,3512.35830000041,367270.291700001,NA,NA,539664.151000001,367641.2693,539664.086500001,"New experiment",19,"[0]","dist_absent",56,69,"yes","yes",1680,NA,NA,NA,NA,"NR","NR","lp",NA,"Right",NA,NA,NA,NA,"practice",0,"NR","in"
"52",1917.68980000052,79048.0246000015,79048.0246000015,29,29,"n",3,"['1', '5', 'space']","n","#000000","no",492091.9196,1,"neutral","psycho","psycho","psycho",0,"uniform",1,0,0,0,NA,0,0,NA,0,0,0,0,51,51,NA,NA,NA,NA,0,0,0,NA,51,0,51,73.2296414732588,"Thu Oct  7 11:38:46 2021","The main experiment item","yes","red","no","None","circle",NA,"pinging_target_expectations 4.0.osexp","C:\Users\etp-cp-ping\Desktop\LocalPC-EXP",75,"no","mono","no",18,"no","white","no","yes",1050,NA,100,"psycho",51,0,51,"C:/Users/etp-cp-ping/Desktop/LocalPC-EXP/subject-22.csv","psycho",4,52,52,"Lentiform Loewenfeld","3.3.8","['hori', 'hori', 'vert', 'vert', 'vert', 'hori', 'vert', 'hori']","no",209,"None","yes",0,NA,2,"legacy",NA,1024,2,48000,-16,"experiment",22,"even","green","no",7,"diamond",361184.817900001,361215.167400001,361215.206600001,NA,366752.833400001,NA,NA,78227.4970000008,3512.28050000009,NA,78227.5193000005,542849.552000001,546657.854800001,NA,NA,NA,NA,3512.35830000041,367270.291700001,NA,NA,542849.566600001,367641.2693,542849.5013,"New experiment",19,"[0]","dist_absent",56,89,"yes","yes",1680,NA,NA,NA,NA,"NR","R","lp",NA,"Right",NA,NA,NA,NA,"practice",5,"NR","in"
"53",1645.3689,80693.3935000015,80693.3935000015,29,29,"n",3,"['1', '5', 'space']","n","#000000","no",492091.9196,1,"neutral","psycho","psycho","psycho",0,"uniform",0,0,0,0,NA,0,0,NA,0,0,0,0,52,52,NA,NA,NA,NA,0,0,0,NA,52,0,52,73.2296414732588,"Thu Oct  7 11:38:46 2021","The main experiment item","yes","green","no","2","diamond",NA,"pinging_target_expectations 4.0.osexp","C:\Users\etp-cp-ping\Desktop\LocalPC-EXP",75,"no","mono","no",18,"no","white","no","yes",1050,NA,100,"psycho",52,0,52,"C:/Users/etp-cp-ping/Desktop/LocalPC-EXP/subject-22.csv","psycho",4,53,53,"Lentiform Loewenfeld","3.3.8","['hori', 'hori', 'vert', 'hori', 'hori', 'vert', 'vert', 'vert']","no",209,"None","yes",0,NA,2,"legacy",NA,1024,2,48000,-16,"experiment",22,"even","red","no",7,"circle",361184.817900001,361215.167400001,361215.206600001,NA,366752.833400001,NA,NA,78227.4970000008,3512.28050000009,NA,78227.5193000005,546688.2015,550097.807900001,NA,NA,NA,NA,3512.35830000041,367270.291700001,NA,NA,546688.2162,367641.2693,546688.152600001,"New experiment",19,"[0]","dist_present",56,83,"yes","yes",1680,NA,NA,NA,NA,"R","NR","lp",NA,NA,NA,NA,NA,NA,"practice",7,"NR","in"
"54",2000.88829999999,82694.2818000015,82694.2818000015,29,29,"n",3,"['1', '5', 'space']","n","#000000","no",551042.141000001,1,"neutral","psycho","psycho","psycho",0,"uniform",0,0,0,0,NA,0,0,NA,0,0,0,0,53,53,NA,NA,NA,NA,0,0,0,NA,53,0,53,73.2296414732588,"Thu Oct  7 11:38:46 2021","The main experiment item","yes","green","no","5","diamond",NA,"pinging_target_expectations 4.0.osexp","C:\Users\etp-cp-ping\Desktop\LocalPC-EXP",75,"no","mono","no",18,"no","white","no","yes",1050,NA,100,"psycho",53,0,53,"C:/Users/etp-cp-ping/Desktop/LocalPC-EXP/subject-22.csv","psycho",5,54,54,"Lentiform Loewenfeld","3.3.8","['hori', 'hori', 'vert', 'vert', 'hori', 'hori', 'vert', 'vert']","yes",109,"diamond","yes",0,NA,2,"legacy",NA,1024,2,48000,-16,"experiment",22,"even","red","no",4,"circle",361184.817900001,361215.167400001,361215.206600001,NA,366752.833400001,NA,NA,78227.4970000008,3512.28050000009,NA,78227.5193000005,550128.163400001,554121.9669,NA,NA,NA,NA,3512.35830000041,367270.291700001,NA,NA,550128.1778,367641.2693,550128.114900001,"New experiment",19,"[0, 93.26199851071004, 118.73136583854692, 150.3969688597089, 177.85122459747333, 207.1577514288352, 228.26123757249223, 262.57463473952293, 287.02510750606433, 325.00462716057115, 346.0452258978577, 358.93024414040633, 393.451379756664, 412.4502757494786, 442.48217012542614, 469.9199276793611, 488.0400233981606, 524.4542187954115, 554.9394389048713]","dist_present",56,56,"yes","no",1680,NA,NA,NA,NA,"NR","NR","lp","Right",NA,NA,NA,NA,NA,"practice",7,"R","in"
"55",1807.82640000049,84502.108200002,84502.108200002,30,30,"n",3,"['1', '5', 'space']","n","#000000","no",551042.141000001,1,"neutral","psycho","psycho","psycho",0,"uniform",1,0,0,0,NA,0,0,NA,0,0,0,0,54,54,NA,NA,NA,NA,0,0,0,NA,54,0,54,73.2296414732588,"Thu Oct  7 11:38:46 2021","The main experiment item","yes","red","no","None","diamond",NA,"pinging_target_expectations 4.0.osexp","C:\Users\etp-cp-ping\Desktop\LocalPC-EXP",75,"no","mono","no",18,"no","white","no","yes",1050,NA,100,"psycho",54,0,54,"C:/Users/etp-cp-ping/Desktop/LocalPC-EXP/subject-22.csv","psycho",5,55,55,"Lentiform Loewenfeld","3.3.8","['hori', 'hori', 'vert', 'hori', 'hori', 'vert', 'vert', 'vert']","yes",109,"diamond","yes",0,NA,2,"legacy",NA,1024,2,48000,-16,"experiment",22,"even","green","no",0,"circle",361184.817900001,361215.167400001,361215.206600001,NA,366752.833400001,NA,NA,78227.4970000008,3512.28050000009,NA,78227.5193000005,554152.448600001,557937.8569,NA,NA,NA,NA,3512.35830000041,367270.291700001,NA,NA,554152.462900001,367641.2693,554152.3999,"New experiment",19,"[0]","dist_absent",56,19,"yes","yes",1680,NA,NA,NA,NA,"NR","NR","lp",NA,NA,NA,NA,NA,NA,"practice",4,"NR","in"
"56",1268.20249999943,85770.3107000014,85770.3107000014,31,31,"n",3,"['1', '5', 'space']","n","#000000","no",559291.340500001,1,"neutral","psycho","psycho","psycho",0,"uniform",1,0,0,0,NA,0,0,NA,0,0,0,0,55,55,NA,NA,NA,NA,0,0,0,NA,55,0,55,73.2296414732588,"Thu Oct  7 11:38:46 2021","The main experiment item","yes","green","no","1","diamond",NA,"pinging_target_expectations 4.0.osexp","C:\Users\etp-cp-ping\Desktop\LocalPC-EXP",75,"no","mono","no",18,"no","white","no","yes",1050,NA,100,"psycho",55,0,55,"C:/Users/etp-cp-ping/Desktop/LocalPC-EXP/subject-22.csv","psycho",6,56,56,"Lentiform Loewenfeld","3.3.8","['vert', 'hori', 'vert', 'hori', 'vert', 'vert', 'hori', 'hori']","no",209,"None","yes",0,NA,2,"legacy",NA,1024,2,48000,-16,"experiment",22,"even","red","no",4,"circle",361184.817900001,361215.167400001,361215.206600001,NA,366752.833400001,NA,NA,78227.4970000008,3512.28050000009,NA,78227.5193000005,557968.367,561057.796900001,NA,NA,NA,NA,3512.35830000041,367270.291700001,NA,NA,557968.381600001,367641.2693,557968.317100001,"New experiment",19,"[0]","dist_present",56,52,"yes","yes",1680,NA,NA,NA,NA,"NR","NR","lp","Left",NA,NA,NA,NA,NA,"practice",0,"NR","in"
"57",1536.78290000057,1536.78290000057,87307.093600002,1,32,"n",3,"['1', '5', 'space']","n","#000000","no",668505.207,2,"bias","psycho","psycho","psycho",0,"uniform",1,0,1,1,NA,1,0,NA,0,0,1,0,56,56,NA,NA,NA,NA,0,1,1,NA,56,1,56,73.2296414732588,"Thu Oct  7 11:38:46 2021","The main experiment item","yes","red","no","4","circle",NA,"pinging_target_expectations 4.0.osexp","C:\Users\etp-cp-ping\Desktop\LocalPC-EXP",75,"no","mono","no",18,"no","white","no","yes",1050,NA,6,"psycho",0,1,0,"C:/Users/etp-cp-ping/Desktop/LocalPC-EXP/subject-22.csv","psycho",2,57,1,"Lentiform Loewenfeld","3.3.8","['hori', 'vert', 'hori', 'vert', 'vert', 'vert', 'hori', 'hori']","no",206,"None","no",0,NA,2,"legacy",NA,1024,2,48000,-16,"experiment",22,"even","green","yes",6,"diamond",361184.817900001,616454.6792,616454.818,NA,648886.280000001,NA,NA,78227.4970000008,3512.28050000009,561594.8372,78227.5193000005,667073.461800001,670450.108800001,NA,NA,NA,NA,3512.35830000041,666717.2601,561087.1671,NA,667073.4774,667069.127100001,667073.4185,"New experiment",19,"[0, 74.92423314849992, 99.78634142781299, 123.00588781639985, 149.61702783136212, 174.60863410077795, 205.6471128224444, 236.29848663323375, 269.03684339783155, 294.56246475009175, 309.57832155254874, 340.72936474568786, 367.16481312892716, 402.8834451379347, 436.49962161542646, 469.3884757110803, 507.56624217947694, 542.426262269813, 601.3065339683006, 640.7608010483763, 681.8119515367129, 724.0860274318745, 764.3515239521472, 812.0141658866467, 851.3197738761736, 900.5615264786928, 94.32973232697977, 115.47552236144759, 137.27317839918217, 173.30630470073422, 199.16387724685418, 231.83221246480917, 264.93906419094975, 302.47883087489305, 336.72842668447686, 375.04799692839316, 408.76700006159524, 450.01209974781096, 489.30100965990187, 530.3619060524658, 580.2009938686211, 648.0045746893767, 697.9048709050604, 750.516429113084, 809.1566957646596, 858.432791424337]","dist_present",56,75,"yes","no",1680,NA,NA,"no hp","True","NR","NR","lp",NA,"Right",NA,"Right",0,2,"first",999,"NR","in"
"58",1518.01950000029,3054.80240000086,88825.1131000023,2,33,"n",3,"['1', '5', 'space']","n","#000000","no",668505.207,2,"bias","psycho","psycho","psycho",0,"uniform",1,0,1,1,NA,1,0,NA,0,0,1,0,57,57,NA,NA,NA,NA,0,1,1,NA,57,1,57,73.2296414732588,"Thu Oct  7 11:38:46 2021","The main experiment item","yes","green","no","2","diamond",NA,"pinging_target_expectations 4.0.osexp","C:\Users\etp-cp-ping\Desktop\LocalPC-EXP",75,"no","mono","no",18,"no","white","no","yes",1050,NA,6,"psycho",1,1,1,"C:/Users/etp-cp-ping/Desktop/LocalPC-EXP/subject-22.csv","psycho",2,58,2,"Lentiform Loewenfeld","3.3.8","['hori', 'vert', 'vert', 'hori', 'vert', 'vert', 'hori', 'hori']","no",206,"None","no",0,NA,2,"legacy",NA,1024,2,48000,-16,"experiment",22,"even","red","yes",6,"circle",361184.817900001,616454.6792,616454.818,NA,648886.280000001,NA,NA,78227.4970000008,3512.28050000009,561594.8372,78227.5193000005,670481.849500001,673953.9602,NA,NA,NA,NA,3512.35830000041,666717.2601,561087.1671,NA,670481.863600001,667069.127100001,670481.8019,"New experiment",19,"[0]","dist_present",56,73,"yes","yes",1680,-49.6407877475248,18.481210210396,"more toward","False","R","NR","hp",NA,NA,NA,NA,0,4,"first",6,"NR","ex"
"59",1872.20560000057,4927.00800000143,90697.3187000029,3,34,"n",3,"['1', '5', 'space']","n","#000000","no",668505.207,2,"bias","psycho","psycho","psycho",0,"uniform",1,0,1,1,NA,1,0,NA,0,0,1,0,58,58,NA,NA,NA,NA,0,1,1,NA,58,1,58,73.2296414732588,"Thu Oct  7 11:38:46 2021","The main experiment item","yes","green","no","None","diamond",NA,"pinging_target_expectations 4.0.osexp","C:\Users\etp-cp-ping\Desktop\LocalPC-EXP",75,"no","mono","no",18,"no","white","no","yes",1050,NA,6,"psycho",2,1,2,"C:/Users/etp-cp-ping/Desktop/LocalPC-EXP/subject-22.csv","psycho",2,59,3,"Lentiform Loewenfeld","3.3.8","['hori', 'vert', 'hori', 'vert', 'vert', 'hori', 'hori', 'vert']","yes",106,"diamond","no",0,NA,2,"legacy",NA,1024,2,48000,-16,"experiment",22,"even","red","yes",6,"circle",361184.817900001,616454.6792,616454.818,NA,648886.280000001,NA,NA,78227.4970000008,3512.28050000009,561594.8372,78227.5193000005,673984.417400001,677698.0644,NA,NA,NA,NA,3512.35830000041,666717.2601,561087.1671,NA,673984.432,667069.127100001,673984.368,"New experiment",19,"[0]","dist_absent",56,79,"yes","yes",1680,-39.9487877475248,20.6769602103959,"more toward","False","R","NR","hp",NA,"Right",NA,"Right",0,NA,"first",6,"R","ex"
"60",2000.39520000061,6927.40320000204,92697.7139000035,3,34,"n",3,"['1', '5', 'space']","n","#000000","no",668505.207,2,"bias","psycho","psycho","psycho",0,"uniform",0,0,1,1,NA,1,0,NA,0,0,1,0,59,59,NA,NA,NA,NA,0,1,1,NA,59,1,59,73.2296414732588,"Thu Oct  7 11:38:46 2021","The main experiment item","yes","red","no","2","circle",NA,"pinging_target_expectations 4.0.osexp","C:\Users\etp-cp-ping\Desktop\LocalPC-EXP",75,"no","mono","no",18,"no","white","no","yes",1050,NA,6,"psycho",3,1,3,"C:/Users/etp-cp-ping/Desktop/LocalPC-EXP/subject-22.csv","psycho",2,60,4,"Lentiform Loewenfeld","3.3.8","['vert', 'hori', 'hori', 'vert', 'vert', 'hori', 'hori', 'vert']","no",206,"None","no",0,NA,2,"legacy",NA,1024,2,48000,-16,"experiment",22,"even","green","yes",6,"diamond",361184.817900001,616454.6792,616454.818,NA,648886.280000001,NA,NA,78227.4970000008,3512.28050000009,561594.8372,78227.5193000005,677729.0192,681614.868000001,NA,NA,NA,NA,3512.35830000041,666717.2601,561087.1671,NA,677729.033600001,667069.127100001,677728.97,"New experiment",19,"[0]","dist_present",56,73,"yes","yes",1680,-38.153350247525,39.263772710396,"more toward","False","R","NR","hp",NA,NA,NA,NA,0,4,"first",6,"R","ex"
"61",1388.3685000001,8315.77170000214,94086.0824000036,3,34,"n",3,"['1', '5', 'space']","n","#000000","no",668505.207,2,"bias","psycho","psycho","psycho",0,"uniform",0,0,1,1,NA,1,0,NA,0,0,1,0,60,60,NA,NA,NA,NA,0,1,1,NA,60,1,60,73.2296414732588,"Thu Oct  7 11:38:46 2021","The main experiment item","yes","green","no","None","circle",NA,"pinging_target_expectations 4.0.osexp","C:\Users\etp-cp-ping\Desktop\LocalPC-EXP",75,"no","mono","no",18,"no","white","no","yes",1050,NA,6,"psycho",4,1,4,"C:/Users/etp-cp-ping/Desktop/LocalPC-EXP/subject-22.csv","psycho",2,61,5,"Lentiform Loewenfeld","3.3.8","['hori', 'vert', 'hori', 'vert', 'hori', 'hori', 'vert', 'vert']","yes",106,"diamond","no",0,NA,2,"legacy",NA,1024,2,48000,-16,"experiment",22,"even","red","no",1,"diamond",361184.817900001,616454.6792,616454.818,NA,648886.280000001,NA,NA,78227.4970000008,3512.28050000009,561594.8372,78227.5193000005,681645.1089,685106.0262,NA,NA,NA,NA,3512.35830000041,666717.2601,561087.1671,NA,681645.123,667069.127100001,681645.058900001,"New experiment",19,"[0]","dist_absent",56,29,"yes","yes",1680,-30.6641002475248,25.781835210396,"more toward","False","NR","NR","hp",NA,"Left",NA,NA,-3,NA,"first",6,"R","in"
"62",1821.63159999973,10137.4033000019,95907.7140000033,4,35,"n",3,"['1', '5', 'space']","n","#000000","no",668505.207,2,"bias","psycho","psycho","psycho",0,"uniform",1,0,1,1,NA,1,0,NA,0,0,1,0,61,61,NA,NA,NA,NA,0,1,1,NA,61,1,61,73.2296414732588,"Thu Oct  7 11:38:46 2021","The main experiment item","yes","red","no","5","diamond",NA,"pinging_target_expectations 4.0.osexp","C:\Users\etp-cp-ping\Desktop\LocalPC-EXP",75,"no","mono","no",18,"no","white","no","yes",1050,NA,6,"psycho",5,1,5,"C:/Users/etp-cp-ping/Desktop/LocalPC-EXP/subject-22.csv","psycho",2,62,6,"Lentiform Loewenfeld","3.3.8","['hori', 'vert', 'hori', 'vert', 'vert', 'vert', 'hori', 'hori']","yes",106,"circles","no",0,NA,2,"legacy",NA,1024,2,48000,-16,"experiment",22,"even","green","no",4,"circle",361184.817900001,616454.6792,616454.818,NA,648886.280000001,NA,NA,78227.4970000008,3512.28050000009,561594.8372,78227.5193000005,685136.4006,688977.955300001,NA,NA,NA,NA,3512.35830000041,666717.2601,561087.1671,NA,685136.4148,667069.127100001,685136.350600001,"New experiment",19,"[0]","dist_present",56,56,"yes","yes",1680,-26.6357877475249,20.969335210396,"more toward","False","NR","NR","lp","Right",NA,NA,NA,2,1,"first",1,"NR","in"
"63",714.307799999835,10851.7111000017,96622.0218000031,5,36,"n",3,"['1', '5', 'space']","n","#000000","no",668505.207,2,"bias","psycho","psycho","psycho",0,"uniform",1,0,1,1,NA,1,0,NA,0,0,1,0,62,62,NA,NA,NA,NA,0,1,1,NA,62,1,62,73.2296414732588,"Thu Oct  7 11:38:46 2021","The main experiment item","yes","red","no","None","diamond",NA,"pinging_target_expectations 4.0.osexp","C:\Users\etp-cp-ping\Desktop\LocalPC-EXP",75,"no","mono","no",18,"no","white","no","yes",1050,NA,6,"psycho",6,1,6,"C:/Users/etp-cp-ping/Desktop/LocalPC-EXP/subject-22.csv","psycho",2,63,7,"Lentiform Loewenfeld","3.3.8","['vert', 'vert', 'hori', 'hori', 'vert', 'hori', 'hori', 'vert']","no",206,"None","no",0,NA,2,"legacy",NA,1024,2,48000,-16,"experiment",22,"even","green","yes",6,"circle",361184.817900001,616454.6792,616454.818,NA,648886.280000001,NA,NA,78227.4970000008,3512.28050000009,561594.8372,78227.5193000005,689008.274600001,691505.9879,NA,NA,NA,NA,3512.35830000041,666717.2601,561087.1671,NA,689008.2892,667069.127100001,689008.2244,"New experiment",19,"[0]","dist_absent",56,79,"yes","yes",1680,-23.2716627475249,14.142022710396,"more toward","False","NR","NR","lp",NA,"Right",NA,"Right",0,NA,"first",4,"NR","ex"
"64",1134.53930000006,11986.2504000018,97756.5611000032,6,37,"n",3,"['1', '5', 'space']","n","#000000","no",668505.207,2,"bias","psycho","psycho","psycho",0,"uniform",1,0,1,1,NA,1,0,NA,0,0,1,0,63,63,NA,NA,NA,NA,0,1,1,NA,63,1,63,73.2296414732588,"Thu Oct  7 11:38:46 2021","The main experiment item","yes","green","no","None","circle",NA,"pinging_target_expectations 4.0.osexp","C:\Users\etp-cp-ping\Desktop\LocalPC-EXP",75,"no","mono","no",18,"no","white","no","yes",1050,NA,6,"psycho",7,1,7,"C:/Users/etp-cp-ping/Desktop/LocalPC-EXP/subject-22.csv","psycho",2,64,8,"Lentiform Loewenfeld","3.3.8","['vert', 'vert', 'vert', 'hori', 'vert', 'hori', 'hori', 'hori']","no",206,"None","no",0,NA,2,"legacy",NA,1024,2,48000,-16,"experiment",22,"even","red","no",3,"diamond",361184.817900001,616454.6792,616454.818,NA,648886.280000001,NA,NA,78227.4970000008,3512.28050000009,561594.8372,78227.5193000005,691536.4919,694513.952200001,NA,NA,NA,NA,3512.35830000041,666717.2601,561087.1671,NA,691536.5068,667069.127100001,691536.438900001,"New experiment",19,"[0]","dist_absent",56,49,"yes","yes",1680,-36.1512877475248,32.434210210396,"more toward","False","NR","R","hp",NA,"Left",NA,NA,3,NA,"first",6,"NR","in"
"65",1282.72289999959,13268.9733000014,99039.2840000028,7,38,"n",3,"['1', '5', 'space']","n","#000000","no",668505.207,2,"bias","psycho","psycho","psycho",0,"uniform",1,0,1,1,NA,1,0,NA,0,0,1,0,64,64,NA,NA,NA,NA,0,1,1,NA,64,1,64,73.2296414732588,"Thu Oct  7 11:38:46 2021","The main experiment item","yes","green","no","None","circle",NA,"pinging_target_expectations 4.0.osexp","C:\Users\etp-cp-ping\Desktop\LocalPC-EXP",75,"no","mono","no",18,"no","white","no","yes",1050,NA,6,"psycho",8,1,8,"C:/Users/etp-cp-ping/Desktop/LocalPC-EXP/subject-22.csv","psycho",2,65,9,"Lentiform Loewenfeld","3.3.8","['vert', 'hori', 'hori', 'hori', 'vert', 'hori', 'vert', 'vert']","yes",106,"diamond","no",0,NA,2,"legacy",NA,1024,2,48000,-16,"experiment",22,"even","red","yes",6,"diamond",361184.817900001,616454.6792,616454.818,NA,648886.280000001,NA,NA,78227.4970000008,3512.28050000009,561594.8372,78227.5193000005,694544.586800001,697713.991600001,NA,NA,NA,NA,3512.35830000041,666717.2601,561087.1671,NA,694544.6013,667069.127100001,694544.5373,"New experiment",19,"[0]","dist_absent",56,79,"yes","yes",1680,-19.8243502475249,18.616710210396,"more toward","False","NR","R","lp",NA,"Right",NA,"Right",0,NA,"first",3,"NR","ex"
"66",823.17760000017,14092.1509000015,99862.4616000029,8,39,"n",3,"['1', '5', 'space']","n","#000000","no",668505.207,2,"bias","psycho","psycho","psycho",0,"uniform",1,0,1,1,NA,1,0,NA,0,0,1,0,65,65,NA,NA,NA,NA,0,1,1,NA,65,1,65,73.2296414732588,"Thu Oct  7 11:38:46 2021","The main experiment item","yes","green","no","None","diamond",NA,"pinging_target_expectations 4.0.osexp","C:\Users\etp-cp-ping\Desktop\LocalPC-EXP",75,"no","mono","no",18,"no","white","no","yes",1050,NA,6,"psycho",9,1,9,"C:/Users/etp-cp-ping/Desktop/LocalPC-EXP/subject-22.csv","psycho",2,66,10,"Lentiform Loewenfeld","3.3.8","['hori', 'hori', 'vert', 'vert', 'vert', 'hori', 'vert', 'hori']","no",206,"None","no",0,NA,2,"legacy",NA,1024,2,48000,-16,"experiment",22,"even","red","no",1,"circle",361184.817900001,616454.6792,616454.818,NA,648886.280000001,NA,NA,78227.4970000008,3512.28050000009,561594.8372,78227.5193000005,697744.392400001,700273.9608,NA,NA,NA,NA,3512.35830000041,666717.2601,561087.1671,NA,697744.4068,667069.127100001,697744.343,"New experiment",19,"[0]","dist_absent",56,29,"yes","yes",1680,-24.5098502475249,28.769835210396,"more toward","False","NR","R","hp",NA,"Left",NA,NA,-3,NA,"first",6,"NR","in"
"67",1686.06840000034,15778.2193000019,101548.530000003,8,39,"n",3,"['1', '5', 'space']","n","#000000","no",668505.207,2,"bias","psycho","psycho","psycho",0,"uniform",0,0,1,1,NA,1,0,NA,0,0,1,0,66,66,NA,NA,NA,NA,0,1,1,NA,66,1,66,73.2296414732588,"Thu Oct  7 11:38:46 2021","The main experiment item","yes","green","yes","6","diamond",NA,"pinging_target_expectations 4.0.osexp","C:\Users\etp-cp-ping\Desktop\LocalPC-EXP",75,"no","mono","no",18,"no","white","no","yes",1050,NA,6,"psycho",10,1,10,"C:/Users/etp-cp-ping/Desktop/LocalPC-EXP/subject-22.csv","psycho",2,67,11,"Lentiform Loewenfeld","3.3.8","['vert', 'hori', 'vert', 'hori', 'hori', 'vert', 'vert', 'hori']","yes",106,"circles","no",0,NA,2,"legacy",NA,1024,2,48000,-16,"experiment",22,"even","red","no",7,"circle",361184.817900001,616454.6792,616454.818,NA,648886.280000001,NA,NA,78227.4970000008,3512.28050000009,561594.8372,78227.5193000005,700304.3919,703873.9707,NA,NA,NA,NA,3512.35830000041,666717.2601,561087.1671,NA,700304.4066,667069.127100001,700304.3401,"New experiment",19,"[0]","dist_present",56,87,"yes","yes",1680,-15.0912252475249,24.783710210396,"more toward","False","NR","NR","lp",NA,NA,NA,NA,-1,0,"first",1,"NR","in"
"68",1551.66790000023,17329.8872000021,103100.197900004,8,39,"n",3,"['1', '5', 'space']","n","#000000","no",668505.207,2,"bias","psycho","psycho","psycho",0,"uniform",0,0,1,1,NA,1,0,NA,0,0,1,0,67,67,NA,NA,NA,NA,0,1,1,NA,67,1,67,73.2296414732588,"Thu Oct  7 11:38:46 2021","The main experiment item","yes","green","yes","6","circle",NA,"pinging_target_expectations 4.0.osexp","C:\Users\etp-cp-ping\Desktop\LocalPC-EXP",75,"no","mono","no",18,"no","white","no","yes",1050,NA,6,"psycho",11,1,11,"C:/Users/etp-cp-ping/Desktop/LocalPC-EXP/subject-22.csv","psycho",2,68,12,"Lentiform Loewenfeld","3.3.8","['vert', 'hori', 'vert', 'vert', 'hori', 'vert', 'hori', 'hori']","yes",106,"circles","no",0,NA,2,"legacy",NA,1024,2,48000,-16,"experiment",22,"even","red","no",0,"diamond",361184.817900001,616454.6792,616454.818,NA,648886.280000001,NA,NA,78227.4970000008,3512.28050000009,561594.8372,78227.5193000005,703904.5088,707409.969200001,NA,NA,NA,NA,3512.35830000041,666717.2601,561087.1671,NA,703904.523,667069.127100001,703904.4591,"New experiment",19,"[0]","dist_present",56,17,"yes","yes",1680,-18.483350247525,2.02152271039604,"more toward","False","NR","R","lp","Right",NA,"Right",NA,-2,0,"first",7,"NR","in"
"69",2000.70039999997,19330.5876000021,105100.898300003,8,39,"n",3,"['1', '5', 'space']","n","#000000","no",708273.531600001,2,"bias","psycho","psycho","psycho",0,"uniform",0,0,1,1,NA,1,0,NA,0,0,1,0,68,68,NA,NA,NA,NA,0,1,1,NA,68,1,68,73.2296414732588,"Thu Oct  7 11:38:46 2021","The main experiment item","yes","green","no","3","circle",NA,"pinging_target_expectations 4.0.osexp","C:\Users\etp-cp-ping\Desktop\LocalPC-EXP",75,"no","mono","no",18,"no","white","no","yes",1050,NA,6,"psycho",12,1,12,"C:/Users/etp-cp-ping/Desktop/LocalPC-EXP/subject-22.csv","psycho",4,69,13,"Lentiform Loewenfeld","3.3.8","['vert', 'hori', 'hori', 'vert', 'hori', 'hori', 'vert', 'vert']","yes",106,"circles","no",0,NA,2,"legacy",NA,1024,2,48000,-16,"experiment",22,"even","red","no",0,"diamond",361184.817900001,616454.6792,616454.818,NA,648886.280000001,NA,NA,78227.4970000008,3512.28050000009,561594.8372,78227.5193000005,707440.307700001,711435.526300001,NA,NA,NA,NA,3512.35830000041,666717.2601,561087.1671,NA,707440.3222,667069.127100001,707440.258400001,"New experiment",19,"[0, 79.43759599657547, 98.48855546022274, 112.7290543183085, 128.7378865471153, 145.95361389725406, 168.64188211798745, 187.23120933624293, 208.1070028876472, 235.38380470018964, 251.93347148152958, 274.98660650978405, 296.24565373756747, 316.0550747703421, 338.2586851849153, 359.9390468452241, 383.62636936155974, 412.2043912384374, 432.0999871516841, 460.8430520211753, 484.26445482508007, 516.5408986711507, 546.4247677463397, 580.510450926817, 618.4116751808621, 650.3627803499015, 676.2952994986913, 704.8515965223603, 741.4500991165778, 785.5219387451903, 812.0454963543694, 420.106271592264, 453.40637650551474, 494.9014792808127, 527.4308256929187, 587.7915756218964, 628.0047009917811, 683.5729661126162, 733.7687954164811, 777.5928039625991, 826.7841374573984]","dist_present",56,14,"yes","no",1680,-19.2876627475249,22.0778977103959,"more toward","False","R","NR","lp","Left",NA,NA,NA,-2,3,"first",0,"NR","in"
"70",1461.18570000003,20791.7733000021,106562.084000004,9,40,"n",3,"['1', '5', 'space']","n","#000000","no",708273.531600001,2,"bias","psycho","psycho","psycho",0,"uniform",1,0,1,1,NA,1,0,NA,0,0,1,0,69,69,NA,NA,NA,NA,0,1,1,NA,69,1,69,73.2296414732588,"Thu Oct  7 11:38:46 2021","The main experiment item","yes","red","no","4","circle",NA,"pinging_target_expectations 4.0.osexp","C:\Users\etp-cp-ping\Desktop\LocalPC-EXP",75,"no","mono","no",18,"no","white","no","yes",1050,NA,6,"psycho",13,1,13,"C:/Users/etp-cp-ping/Desktop/LocalPC-EXP/subject-22.csv","psycho",4,70,14,"Lentiform Loewenfeld","3.3.8","['vert', 'vert', 'hori', 'hori', 'vert', 'hori', 'vert', 'hori']","no",206,"None","no",0,NA,2,"legacy",NA,1024,2,48000,-16,"experiment",22,"even","green","no",5,"diamond",361184.817900001,616454.6792,616454.818,NA,648886.280000001,NA,NA,78227.4970000008,3512.28050000009,561594.8372,78227.5193000005,711465.845600001,714754.067700001,NA,NA,NA,NA,3512.35830000041,666717.2601,561087.1671,NA,711465.8599,667069.127100001,711465.7973,"New experiment",19,"[0]","dist_present",56,65,"yes","yes",1680,-21.6317252475249,35.017022710396,"more toward","False","NR","NR","lp",NA,"Right",NA,NA,1,2,"first",0,"R","in"
"71",1449.42690000054,22241.2002000026,108011.510900004,10,41,"n",3,"['1', '5', 'space']","n","#000000","no",708273.531600001,2,"bias","psycho","psycho","psycho",0,"uniform",1,0,1,1,NA,1,0,NA,0,0,1,0,70,70,NA,NA,NA,NA,0,1,1,NA,70,1,70,73.2296414732588,"Thu Oct  7 11:38:46 2021","The main experiment item","yes","red","no","None","diamond",NA,"pinging_target_expectations 4.0.osexp","C:\Users\etp-cp-ping\Desktop\LocalPC-EXP",75,"no","mono","no",18,"no","white","no","yes",1050,NA,6,"psycho",14,1,14,"C:/Users/etp-cp-ping/Desktop/LocalPC-EXP/subject-22.csv","psycho",4,71,15,"Lentiform Loewenfeld","3.3.8","['hori', 'hori', 'hori', 'vert', 'hori', 'vert', 'vert', 'vert']","yes",106,"circles","no",0,NA,2,"legacy",NA,1024,2,48000,-16,"experiment",22,"even","green","no",0,"circle",361184.817900001,616454.6792,616454.818,NA,648886.280000001,NA,NA,78227.4970000008,3512.28050000009,561594.8372,78227.5193000005,714784.6294,718209.976800001,NA,NA,NA,NA,3512.35830000041,666717.2601,561087.1671,NA,714784.643700001,667069.127100001,714784.5802,"New experiment",19,"[0]","dist_absent",56,19,"yes","yes",1680,-11.4096627475251,19.395897710396,"more toward","False","NR","NR","lp",NA,NA,NA,NA,-2,NA,"first",5,"NR","in"
"72",813.061499999953,23054.2617000026,108824.572400004,11,42,"n",3,"['1', '5', 'space']","n","#000000","no",708273.531600001,2,"bias","psycho","psycho","psycho",0,"uniform",1,0,1,1,NA,1,0,NA,0,0,1,0,71,71,NA,NA,NA,NA,0,1,1,NA,71,1,71,73.2296414732588,"Thu Oct  7 11:38:46 2021","The main experiment item","yes","red","no","None","diamond",NA,"pinging_target_expectations 4.0.osexp","C:\Users\etp-cp-ping\Desktop\LocalPC-EXP",75,"no","mono","no",18,"no","white","no","yes",1050,NA,6,"psycho",15,1,15,"C:/Users/etp-cp-ping/Desktop/LocalPC-EXP/subject-22.csv","psycho",4,72,16,"Lentiform Loewenfeld","3.3.8","['hori', 'vert', 'vert', 'vert', 'hori', 'hori', 'vert', 'hori']","yes",106,"circles","no",0,NA,2,"legacy",NA,1024,2,48000,-16,"experiment",22,"even","green","yes",6,"circle",361184.817900001,616454.6792,616454.818,NA,648886.280000001,NA,NA,78227.4970000008,3512.28050000009,561594.8372,78227.5193000005,718240.486000001,721026.140000001,NA,NA,NA,NA,3512.35830000041,666717.2601,561087.1671,NA,718240.500700001,667069.127100001,718240.4364,"New experiment",19,"[0]","dist_absent",56,79,"yes","yes",1680,-19.8149127475248,33.820460210396,"more toward","False","NR","R","lp",NA,"Right",NA,"Right",0,NA,"first",0,"NR","ex"
"73",1218.99630000012,24273.2580000027,110043.568700004,12,43,"n",3,"['1', '5', 'space']","n","#000000","no",708273.531600001,2,"bias","psycho","psycho","psycho",0,"uniform",1,0,1,1,NA,1,0,NA,0,0,1,0,72,72,NA,NA,NA,NA,0,1,1,NA,72,1,72,73.2296414732588,"Thu Oct  7 11:38:46 2021","The main experiment item","yes","red","no","0","circle",NA,"pinging_target_expectations 4.0.osexp","C:\Users\etp-cp-ping\Desktop\LocalPC-EXP",75,"no","mono","no",18,"no","white","no","yes",1050,NA,6,"psycho",16,1,16,"C:/Users/etp-cp-ping/Desktop/LocalPC-EXP/subject-22.csv","psycho",4,73,17,"Lentiform Loewenfeld","3.3.8","['vert', 'hori', 'hori', 'hori', 'vert', 'hori', 'vert', 'vert']","yes",106,"diamond","no",0,NA,2,"legacy",NA,1024,2,48000,-16,"experiment",22,"even","green","no",1,"diamond",361184.817900001,616454.6792,616454.818,NA,648886.280000001,NA,NA,78227.4970000008,3512.28050000009,561594.8372,78227.5193000005,721056.7381,724418.0697,NA,NA,NA,NA,3512.35830000041,666717.2601,561087.1671,NA,721056.752500001,667069.127100001,721056.688600001,"New experiment",19,"[0]","dist_present",56,21,"yes","yes",1680,-11.2972877475249,40.107960210396,"more toward","False","NR","NR","hp",NA,"Left",NA,NA,-3,-2,"first",6,"NR","in"
"74",1666.18740000005,25939.4454000028,111709.756100004,13,44,"n",3,"['1', '5', 'space']","n","#000000","no",708273.531600001,2,"bias","psycho","psycho","psycho",0,"uniform",1,0,1,1,NA,1,0,NA,0,0,1,0,73,73,NA,NA,NA,NA,0,1,1,NA,73,1,73,73.2296414732588,"Thu Oct  7 11:38:46 2021","The main experiment item","yes","green","no","5","diamond",NA,"pinging_target_expectations 4.0.osexp","C:\Users\etp-cp-ping\Desktop\LocalPC-EXP",75,"no","mono","no",18,"no","white","no","yes",1050,NA,6,"psycho",17,1,17,"C:/Users/etp-cp-ping/Desktop/LocalPC-EXP/subject-22.csv","psycho",4,74,18,"Lentiform Loewenfeld","3.3.8","['hori', 'hori', 'vert', 'vert', 'hori', 'vert', 'vert', 'hori']","yes",106,"diamond","no",0,NA,2,"legacy",NA,1024,2,48000,-16,"experiment",22,"even","red","no",3,"circle",361184.817900001,616454.6792,616454.818,NA,648886.280000001,NA,NA,78227.4970000008,3512.28050000009,561594.8372,78227.5193000005,724448.6727,728210.152000001,NA,NA,NA,NA,3512.35830000041,666717.2601,561087.1671,NA,724448.687300001,667069.127100001,724448.6225,"New experiment",19,"[0]","dist_present",56,46,"yes","yes",1680,-13.5384127475249,33.360772710396,"more toward","False","NR","NR","lp",NA,NA,NA,NA,3,1,"first",1,"NR","in"
