"","RT","RT_bl","RT_tot","acc_bl","acc_tot","answer_debrief_1","answer_debrief_2","answer_debrief_3","answer_debrief_4","background","bidi","blink_onset","block_cnt","block_type","canvas_backend","clock_backend","color_backend","compensation","coordinates","correct","count_block_loop","count_block_seq","count_block_settings","count_check_session","count_drift_correct","count_end_loop","count_end_seq","count_exp_settings","count_experiment","count_feedback","count_instructions","count_log_variables","count_logger","count_new_inline_script","count_new_pygaze_drift_correct","count_new_pygaze_start_recording","count_new_pygaze_stop_recording","count_pygaze","count_start_recording","count_stop_recording","count_test_location","count_trial","count_trial_loop","count_trial_seq","d_eye","datetime","description","disable_garbage_collection","dist_color","dist_high","dist_loc","dist_shape","empty_column","experiment_file","experiment_path","eye_threshold_length","font_bold","font_family","font_italic","font_size","font_underline","foreground","form_clicks","fullscreen","height","high_loc","high_prob_loc","keyboard_backend","live_row","live_row_block_loop","live_row_trial_loop","logfile","mouse_backend","nr_blinks","nr_trials","nr_trials_bl","opensesame_codename","opensesame_version","orient_list_trial","ping","ping_trigger","ping_type","practice","repeat_cycle","response","round_decimals","sampler_backend","session_nr","sound_buf_size","sound_channels","sound_freq","sound_sample_size","start","subject_nr","subject_parity","target_color","target_high","target_loc","target_shape","time_block_loop","time_block_seq","time_block_settings","time_check_session","time_drift_correct","time_end_loop","time_end_seq","time_exp_settings","time_experiment","time_feedback","time_instructions","time_log_variables","time_logger","time_new_inline_script","time_new_pygaze_drift_correct","time_new_pygaze_start_recording","time_new_pygaze_stop_recording","time_pygaze","time_start_recording","time_stop_recording","time_test_location","time_trial","time_trial_loop","time_trial_seq","title","total_blocks","tracker_dev","trial_type","trials_in_block","trigger","uniform_coordinates","update_blinks","width","x","y","toward","containsNaN","rept","repd","prevtar","pd","nt","pd_c","nt_c","tar_dist","dist_dist","prevHP","eegTar","repteeg","tarcounter"
"1",801.434199999669,801.434199999669,801.434199999669,0,0,"n",6,"['2', '4', 'space']","n","#000000","no",1363.20150000029,1,"neutral","psycho","psycho","psycho",0,"uniform",0,0,0,0,NA,0,0,NA,0,0,0,0,0,0,NA,NA,NA,NA,0,0,0,NA,0,0,0,73.2296414732588,"Thu Dec  2 11:15:44 2021","The main experiment item","yes","green","no","7","diamond",NA,"pinging_target_expectations 4.0.osexp","C:\Users\etp-cp-ping\Desktop\LocalPC-EXP",75,"no","mono","no",18,"no","white","no","yes",1050,NA,100,"psycho",0,0,0,"C:/Users/etp-cp-ping/Desktop/LocalPC-EXP/subject-10.csv","psycho",0,1,1,"Lentiform Loewenfeld","3.3.8","['hori', 'vert', 'hori', 'vert', 'vert', 'hori', 'vert', 'hori']","no",209,"None","yes",0,NA,2,"legacy",NA,1024,2,48000,-16,"experiment",10,"even","red","no",2,"circle",453405.0796,453428.0876,453428.1284,NA,460349.0859,NA,NA,97665.0312000002,1368.05639999966,NA,97665.0552999999,461002.8771,463646.1236,NA,NA,NA,NA,1368.1330999998,460657.5693,NA,NA,461002.8919,460998.5461,461002.831,"New experiment",19,"[0]","dist_present",56,38,"yes","yes",1680,NA,NA,NA,NA,"NR","NR","lp",NA,NA,NA,NA,NA,NA,"practice",999,"NR","in"
"2",1488.49619999964,2289.93039999931,2289.93039999931,1,1,"n",6,"['2', '4', 'space']","n","#000000","no",1363.20150000029,1,"neutral","psycho","psycho","psycho",0,"uniform",1,0,0,0,NA,0,0,NA,0,0,0,0,1,1,NA,NA,NA,NA,0,0,0,NA,1,0,1,73.2296414732588,"Thu Dec  2 11:15:44 2021","The main experiment item","yes","red","no","None","circle",NA,"pinging_target_expectations 4.0.osexp","C:\Users\etp-cp-ping\Desktop\LocalPC-EXP",75,"no","mono","no",18,"no","white","no","yes",1050,NA,100,"psycho",1,0,1,"C:/Users/etp-cp-ping/Desktop/LocalPC-EXP/subject-10.csv","psycho",0,2,2,"Lentiform Loewenfeld","3.3.8","['vert', 'vert', 'hori', 'hori', 'hori', 'hori', 'vert', 'vert']","no",209,"None","yes",0,NA,2,"legacy",NA,1024,2,48000,-16,"experiment",10,"even","green","no",1,"diamond",453405.0796,453428.0876,453428.1284,NA,460349.0859,NA,NA,97665.0312000002,1368.05639999966,NA,97665.0552999999,463687.6455,467118.1726,NA,NA,NA,NA,1368.1330999998,460657.5693,NA,NA,463687.6602,460998.5461,463687.5975,"New experiment",19,"[0]","dist_absent",56,29,"yes","yes",1680,NA,NA,NA,NA,"NR","NR","lp",NA,"Left",NA,NA,NA,NA,"practice",2,"NR","in"
"3",1157.97440000001,3447.90479999932,3447.90479999932,1,1,"n",6,"['2', '4', 'space']","n","#000000","no",1363.20150000029,1,"neutral","psycho","psycho","psycho",0,"uniform",0,0,0,0,NA,0,0,NA,0,0,0,0,2,2,NA,NA,NA,NA,0,0,0,NA,2,0,2,73.2296414732588,"Thu Dec  2 11:15:44 2021","The main experiment item","yes","red","no","6","diamond",NA,"pinging_target_expectations 4.0.osexp","C:\Users\etp-cp-ping\Desktop\LocalPC-EXP",75,"no","mono","no",18,"no","white","no","yes",1050,NA,100,"psycho",2,0,2,"C:/Users/etp-cp-ping/Desktop/LocalPC-EXP/subject-10.csv","psycho",0,3,3,"Lentiform Loewenfeld","3.3.8","['hori', 'hori', 'vert', 'vert', 'hori', 'vert', 'vert', 'hori']","yes",109,"diamond","yes",0,NA,2,"legacy",NA,1024,2,48000,-16,"experiment",10,"even","green","no",1,"circle",453405.0796,453428.0876,453428.1284,NA,460349.0859,NA,NA,97665.0312000002,1368.05639999966,NA,97665.0552999999,467148.8861,470094.211,NA,NA,NA,NA,1368.1330999998,460657.5693,NA,NA,467148.9004,460998.5461,467148.838,"New experiment",19,"[0]","dist_present",56,27,"yes","yes",1680,NA,NA,NA,NA,"R","NR","lp",NA,NA,NA,NA,NA,NA,"practice",1,"NR","in"
"4",816.60019999987,4264.50499999919,4264.50499999919,2,2,"n",6,"['2', '4', 'space']","n","#000000","no",1363.20150000029,1,"neutral","psycho","psycho","psycho",0,"uniform",1,0,0,0,NA,0,0,NA,0,0,0,0,3,3,NA,NA,NA,NA,0,0,0,NA,3,0,3,73.2296414732588,"Thu Dec  2 11:15:44 2021","The main experiment item","yes","green","no","1","circle",NA,"pinging_target_expectations 4.0.osexp","C:\Users\etp-cp-ping\Desktop\LocalPC-EXP",75,"no","mono","no",18,"no","white","no","yes",1050,NA,100,"psycho",3,0,3,"C:/Users/etp-cp-ping/Desktop/LocalPC-EXP/subject-10.csv","psycho",0,4,4,"Lentiform Loewenfeld","3.3.8","['vert', 'hori', 'hori', 'vert', 'vert', 'vert', 'hori', 'hori']","yes",109,"circles","yes",0,NA,2,"legacy",NA,1024,2,48000,-16,"experiment",10,"even","red","no",4,"diamond",453405.0796,453428.0876,453428.1284,NA,460349.0859,NA,NA,97665.0312000002,1368.05639999966,NA,97665.0552999999,470124.4563,472990.1018,NA,NA,NA,NA,1368.1330999998,460657.5693,NA,NA,470124.4706,460998.5461,470124.4078,"New experiment",19,"[0]","dist_present",56,52,"yes","yes",1680,NA,NA,NA,NA,"NR","NR","lp","Left",NA,NA,NA,NA,NA,"practice",1,"R","in"
"5",958.612099999271,5223.11709999846,5223.11709999846,3,3,"n",6,"['2', '4', 'space']","n","#000000","no",1363.20150000029,1,"neutral","psycho","psycho","psycho",0,"uniform",1,0,0,0,NA,0,0,NA,0,0,0,0,4,4,NA,NA,NA,NA,0,0,0,NA,4,0,4,73.2296414732588,"Thu Dec  2 11:15:44 2021","The main experiment item","yes","red","no","6","circle",NA,"pinging_target_expectations 4.0.osexp","C:\Users\etp-cp-ping\Desktop\LocalPC-EXP",75,"no","mono","no",18,"no","white","no","yes",1050,NA,100,"psycho",4,0,4,"C:/Users/etp-cp-ping/Desktop/LocalPC-EXP/subject-10.csv","psycho",0,5,5,"Lentiform Loewenfeld","3.3.8","['hori', 'vert', 'vert', 'hori', 'hori', 'hori', 'vert', 'vert']","no",209,"None","yes",0,NA,2,"legacy",NA,1024,2,48000,-16,"experiment",10,"even","green","no",7,"diamond",453405.0796,453428.0876,453428.1284,NA,460349.0859,NA,NA,97665.0312000002,1368.05639999966,NA,97665.0552999999,473020.3724,475726.1478,NA,NA,NA,NA,1368.1330999998,460657.5693,NA,NA,473020.3867,460998.5461,473020.323799999,"New experiment",19,"[0]","dist_present",56,87,"yes","yes",1680,NA,NA,NA,NA,"NR","NR","lp",NA,NA,NA,NA,NA,NA,"practice",4,"NR","in"
"6",1379.24760000082,6602.36469999928,6602.36469999928,3,3,"n",6,"['2', '4', 'space']","n","#000000","no",1363.20150000029,1,"neutral","psycho","psycho","psycho",0,"uniform",0,0,0,0,NA,0,0,NA,0,0,0,0,5,5,NA,NA,NA,NA,0,0,0,NA,5,0,5,73.2296414732588,"Thu Dec  2 11:15:44 2021","The main experiment item","yes","green","no","1","circle",NA,"pinging_target_expectations 4.0.osexp","C:\Users\etp-cp-ping\Desktop\LocalPC-EXP",75,"no","mono","no",18,"no","white","no","yes",1050,NA,100,"psycho",5,0,5,"C:/Users/etp-cp-ping/Desktop/LocalPC-EXP/subject-10.csv","psycho",0,6,6,"Lentiform Loewenfeld","3.3.8","['vert', 'hori', 'hori', 'hori', 'vert', 'vert', 'hori', 'vert']","yes",109,"diamond","yes",0,NA,2,"legacy",NA,1024,2,48000,-16,"experiment",10,"even","red","no",6,"diamond",453405.0796,453428.0876,453428.1284,NA,460349.0859,NA,NA,97665.0312000002,1368.05639999966,NA,97665.0552999999,475756.5092,479086.3209,NA,NA,NA,NA,1368.1330999998,460657.5693,NA,NA,475756.5234,460998.5461,475756.4603,"New experiment",19,"[0]","dist_present",56,72,"yes","yes",1680,NA,NA,NA,NA,"NR","NR","lp",NA,NA,NA,NA,NA,NA,"practice",7,"NR","in"
"7",2000.9424,8603.30709999928,8603.30709999928,3,3,"n",6,"['2', '4', 'space']","n","#000000","no",1363.20150000029,1,"neutral","psycho","psycho","psycho",0,"uniform",0,0,0,0,NA,0,0,NA,0,0,0,0,6,6,NA,NA,NA,NA,0,0,0,NA,6,0,6,73.2296414732588,"Thu Dec  2 11:15:44 2021","The main experiment item","yes","red","no","None","diamond",NA,"pinging_target_expectations 4.0.osexp","C:\Users\etp-cp-ping\Desktop\LocalPC-EXP",75,"no","mono","no",18,"no","white","no","yes",1050,NA,100,"psycho",6,0,6,"C:/Users/etp-cp-ping/Desktop/LocalPC-EXP/subject-10.csv","psycho",0,7,7,"Lentiform Loewenfeld","3.3.8","['vert', 'vert', 'vert', 'vert', 'hori', 'hori', 'hori', 'hori']","no",209,"None","yes",0,NA,2,"legacy",NA,1024,2,48000,-16,"experiment",10,"even","green","no",7,"circle",453405.0796,453428.0876,453428.1284,NA,460349.0859,NA,NA,97665.0312000002,1368.05639999966,NA,97665.0552999999,479116.5341,482927.0381,NA,NA,NA,NA,1368.1330999998,460657.5693,NA,NA,479116.5484,460998.5461,479116.4852,"New experiment",19,"[0]","dist_absent",56,89,"yes","yes",1680,NA,NA,NA,NA,"NR","NR","lp",NA,"Right",NA,NA,NA,NA,"practice",6,"NR","in"
"8",813.204099999915,9416.51119999919,9416.51119999919,4,4,"n",6,"['2', '4', 'space']","n","#000000","no",1363.20150000029,1,"neutral","psycho","psycho","psycho",0,"uniform",1,0,0,0,NA,0,0,NA,0,0,0,0,7,7,NA,NA,NA,NA,0,0,0,NA,7,0,7,73.2296414732588,"Thu Dec  2 11:15:44 2021","The main experiment item","yes","red","no","1","circle",NA,"pinging_target_expectations 4.0.osexp","C:\Users\etp-cp-ping\Desktop\LocalPC-EXP",75,"no","mono","no",18,"no","white","no","yes",1050,NA,100,"psycho",7,0,7,"C:/Users/etp-cp-ping/Desktop/LocalPC-EXP/subject-10.csv","psycho",0,8,8,"Lentiform Loewenfeld","3.3.8","['vert', 'hori', 'hori', 'hori', 'vert', 'vert', 'hori', 'vert']","no",209,"None","yes",0,NA,2,"legacy",NA,1024,2,48000,-16,"experiment",10,"even","green","no",3,"diamond",453405.0796,453428.0876,453428.1284,NA,460349.0859,NA,NA,97665.0312000002,1368.05639999966,NA,97665.0552999999,482957.2182,485486.0957,NA,NA,NA,NA,1368.1330999998,460657.5693,NA,NA,482957.2323,460998.5461,482957.1688,"New experiment",19,"[0]","dist_present",56,42,"yes","yes",1680,NA,NA,NA,NA,"NR","NR","lp",NA,NA,NA,NA,NA,NA,"practice",7,"NR","in"
"9",614.922200000379,10031.4333999996,10031.4333999996,5,5,"n",6,"['2', '4', 'space']","n","#000000","no",1363.20150000029,1,"neutral","psycho","psycho","psycho",0,"uniform",1,0,0,0,NA,0,0,NA,0,0,0,0,8,8,NA,NA,NA,NA,0,0,0,NA,8,0,8,73.2296414732588,"Thu Dec  2 11:15:44 2021","The main experiment item","yes","red","no","None","circle",NA,"pinging_target_expectations 4.0.osexp","C:\Users\etp-cp-ping\Desktop\LocalPC-EXP",75,"no","mono","no",18,"no","white","no","yes",1050,NA,100,"psycho",8,0,8,"C:/Users/etp-cp-ping/Desktop/LocalPC-EXP/subject-10.csv","psycho",0,9,9,"Lentiform Loewenfeld","3.3.8","['vert', 'vert', 'hori', 'vert', 'hori', 'hori', 'hori', 'vert']","yes",109,"circles","yes",0,NA,2,"legacy",NA,1024,2,48000,-16,"experiment",10,"even","green","no",6,"diamond",453405.0796,453428.0876,453428.1284,NA,460349.0859,NA,NA,97665.0312000002,1368.05639999966,NA,97665.0552999999,485516.4067,487934.1025,NA,NA,NA,NA,1368.1330999998,460657.5693,NA,NA,485516.4213,460998.5461,485516.3573,"New experiment",19,"[0]","dist_absent",56,79,"yes","yes",1680,NA,NA,NA,NA,"NR","NR","lp",NA,"Right",NA,"Right",NA,NA,"practice",3,"NR","in"
"10",682.317300000228,10713.7506999998,10713.7506999998,6,6,"n",6,"['2', '4', 'space']","n","#000000","no",488377.1886,1,"neutral","psycho","psycho","psycho",0,"uniform",1,0,0,0,NA,0,0,NA,0,0,0,0,9,9,NA,NA,NA,NA,0,0,0,NA,9,0,9,73.2296414732588,"Thu Dec  2 11:15:44 2021","The main experiment item","yes","green","no","None","circle",NA,"pinging_target_expectations 4.0.osexp","C:\Users\etp-cp-ping\Desktop\LocalPC-EXP",75,"no","mono","no",18,"no","white","no","yes",1050,NA,100,"psycho",9,0,9,"C:/Users/etp-cp-ping/Desktop/LocalPC-EXP/subject-10.csv","psycho",1,10,10,"Lentiform Loewenfeld","3.3.8","['vert', 'vert', 'hori', 'hori', 'vert', 'hori', 'vert', 'hori']","no",209,"None","yes",0,NA,2,"legacy",NA,1024,2,48000,-16,"experiment",10,"even","red","no",7,"diamond",453405.0796,453428.0876,453428.1284,NA,460349.0859,NA,NA,97665.0312000002,1368.05639999966,NA,97665.0552999999,487964.3394,490574.0878,NA,NA,NA,NA,1368.1330999998,460657.5693,NA,NA,487964.3535,460998.5461,487964.2919,"New experiment",19,"[0, 582.5307137154879]","dist_absent",56,89,"yes","no",1680,NA,NA,NA,NA,"NR","R","lp",NA,"Right",NA,NA,NA,NA,"practice",6,"NR","in"
"11",686.861599999247,11400.612299999,11400.612299999,6,6,"n",6,"['2', '4', 'space']","n","#000000","no",488377.1886,1,"neutral","psycho","psycho","psycho",0,"uniform",0,0,0,0,NA,0,0,NA,0,0,0,0,10,10,NA,NA,NA,NA,0,0,0,NA,10,0,10,73.2296414732588,"Thu Dec  2 11:15:44 2021","The main experiment item","yes","green","no","1","circle",NA,"pinging_target_expectations 4.0.osexp","C:\Users\etp-cp-ping\Desktop\LocalPC-EXP",75,"no","mono","no",18,"no","white","no","yes",1050,NA,100,"psycho",10,0,10,"C:/Users/etp-cp-ping/Desktop/LocalPC-EXP/subject-10.csv","psycho",1,11,11,"Lentiform Loewenfeld","3.3.8","['hori', 'hori', 'vert', 'vert', 'vert', 'vert', 'hori', 'hori']","yes",109,"diamond","yes",0,NA,2,"legacy",NA,1024,2,48000,-16,"experiment",10,"even","red","no",3,"diamond",453405.0796,453428.0876,453428.1284,NA,460349.0859,NA,NA,97665.0312000002,1368.05639999966,NA,97665.0552999999,490604.4942,493166.0612,NA,NA,NA,NA,1368.1330999998,460657.5693,NA,NA,490604.5087,460998.5461,490604.4448,"New experiment",19,"[0, 73.77645245282962]","dist_present",56,42,"yes","yes",1680,NA,NA,NA,NA,"NR","NR","lp",NA,NA,NA,NA,NA,NA,"practice",7,"NR","in"
"12",651.870099999534,12052.4823999986,12052.4823999986,7,7,"n",6,"['2', '4', 'space']","n","#000000","no",488377.1886,1,"neutral","psycho","psycho","psycho",0,"uniform",1,0,0,0,NA,0,0,NA,0,0,0,0,11,11,NA,NA,NA,NA,0,0,0,NA,11,0,11,73.2296414732588,"Thu Dec  2 11:15:44 2021","The main experiment item","yes","green","no","4","diamond",NA,"pinging_target_expectations 4.0.osexp","C:\Users\etp-cp-ping\Desktop\LocalPC-EXP",75,"no","mono","no",18,"no","white","no","yes",1050,NA,100,"psycho",11,0,11,"C:/Users/etp-cp-ping/Desktop/LocalPC-EXP/subject-10.csv","psycho",1,12,12,"Lentiform Loewenfeld","3.3.8","['hori', 'hori', 'hori', 'vert', 'hori', 'vert', 'vert', 'vert']","yes",109,"diamond","yes",0,NA,2,"legacy",NA,1024,2,48000,-16,"experiment",10,"even","red","no",2,"circle",453405.0796,453428.0876,453428.1284,NA,460349.0859,NA,NA,97665.0312000002,1368.05639999966,NA,97665.0552999999,493196.4634,495902.1719,NA,NA,NA,NA,1368.1330999998,460657.5693,NA,NA,493196.4779,460998.5461,493196.4143,"New experiment",19,"[0]","dist_present",56,35,"yes","yes",1680,NA,NA,NA,NA,"NR","NR","lp",NA,"Left",NA,"Left",NA,NA,"practice",3,"NR","in"
"13",670.922000000253,12723.4043999988,12723.4043999988,8,8,"n",6,"['2', '4', 'space']","n","#000000","no",496438.8093,1,"neutral","psycho","psycho","psycho",0,"uniform",1,0,0,0,NA,0,0,NA,0,0,0,0,12,12,NA,NA,NA,NA,0,0,0,NA,12,0,12,73.2296414732588,"Thu Dec  2 11:15:44 2021","The main experiment item","yes","green","no","7","circle",NA,"pinging_target_expectations 4.0.osexp","C:\Users\etp-cp-ping\Desktop\LocalPC-EXP",75,"no","mono","no",18,"no","white","no","yes",1050,NA,100,"psycho",12,0,12,"C:/Users/etp-cp-ping/Desktop/LocalPC-EXP/subject-10.csv","psycho",2,13,13,"Lentiform Loewenfeld","3.3.8","['hori', 'hori', 'hori', 'vert', 'hori', 'vert', 'vert', 'vert']","no",209,"None","yes",0,NA,2,"legacy",NA,1024,2,48000,-16,"experiment",10,"even","red","no",1,"diamond",453405.0796,453428.0876,453428.1284,NA,460349.0859,NA,NA,97665.0312000002,1368.05639999966,NA,97665.0552999999,495932.8464,498654.0765,NA,NA,NA,NA,1368.1330999998,460657.5693,NA,NA,495932.8606,460998.5461,495932.7977,"New experiment",19,"[0]","dist_present",56,28,"yes","no",1680,NA,NA,NA,NA,"NR","NR","lp",NA,NA,NA,NA,NA,NA,"practice",2,"NR","in"
"14",604.883500000171,13328.287899999,13328.287899999,9,9,"n",6,"['2', '4', 'space']","n","#000000","no",496438.8093,1,"neutral","psycho","psycho","psycho",0,"uniform",1,0,0,0,NA,0,0,NA,0,0,0,0,13,13,NA,NA,NA,NA,0,0,0,NA,13,0,13,73.2296414732588,"Thu Dec  2 11:15:44 2021","The main experiment item","yes","red","no","6","circle",NA,"pinging_target_expectations 4.0.osexp","C:\Users\etp-cp-ping\Desktop\LocalPC-EXP",75,"no","mono","no",18,"no","white","no","yes",1050,NA,100,"psycho",13,0,13,"C:/Users/etp-cp-ping/Desktop/LocalPC-EXP/subject-10.csv","psycho",2,14,14,"Lentiform Loewenfeld","3.3.8","['hori', 'vert', 'vert', 'hori', 'hori', 'hori', 'vert', 'vert']","no",209,"None","yes",0,NA,2,"legacy",NA,1024,2,48000,-16,"experiment",10,"even","green","no",7,"diamond",453405.0796,453428.0876,453428.1284,NA,460349.0859,NA,NA,97665.0312000002,1368.05639999966,NA,97665.0552999999,498684.4721,501198.1033,NA,NA,NA,NA,1368.1330999998,460657.5693,NA,NA,498684.4865,460998.5461,498684.421899999,"New experiment",19,"[0]","dist_present",56,87,"yes","yes",1680,NA,NA,NA,NA,"NR","NR","lp",NA,NA,NA,NA,NA,NA,"practice",1,"NR","in"
"15",678.884199999622,14007.1720999986,14007.1720999986,9,9,"n",6,"['2', '4', 'space']","n","#000000","no",496438.8093,1,"neutral","psycho","psycho","psycho",0,"uniform",0,0,0,0,NA,0,0,NA,0,0,0,0,14,14,NA,NA,NA,NA,0,0,0,NA,14,0,14,73.2296414732588,"Thu Dec  2 11:15:44 2021","The main experiment item","yes","red","no","3","diamond",NA,"pinging_target_expectations 4.0.osexp","C:\Users\etp-cp-ping\Desktop\LocalPC-EXP",75,"no","mono","no",18,"no","white","no","yes",1050,NA,100,"psycho",14,0,14,"C:/Users/etp-cp-ping/Desktop/LocalPC-EXP/subject-10.csv","psycho",2,15,15,"Lentiform Loewenfeld","3.3.8","['hori', 'hori', 'vert', 'vert', 'vert', 'hori', 'vert', 'hori']","yes",109,"diamond","yes",0,NA,2,"legacy",NA,1024,2,48000,-16,"experiment",10,"even","green","no",1,"circle",453405.0796,453428.0876,453428.1284,NA,460349.0859,NA,NA,97665.0312000002,1368.05639999966,NA,97665.0552999999,501228.4521,503822.0556,NA,NA,NA,NA,1368.1330999998,460657.5693,NA,NA,501228.4665,460998.5461,501228.4032,"New experiment",19,"[0, 77.46485279124653, 84.50591695260161, 77.72030620175461, 77.36102311855446, 77.4847847810055, 75.93053803606331, 74.96668498354866]","dist_present",56,24,"yes","yes",1680,NA,NA,NA,NA,"NR","NR","lp",NA,NA,NA,NA,NA,NA,"practice",7,"NR","in"
"16",737.20229999983,14744.3743999985,14744.3743999985,10,10,"n",6,"['2', '4', 'space']","n","#000000","no",496438.8093,1,"neutral","psycho","psycho","psycho",0,"uniform",1,0,0,0,NA,0,0,NA,0,0,0,0,15,15,NA,NA,NA,NA,0,0,0,NA,15,0,15,73.2296414732588,"Thu Dec  2 11:15:44 2021","The main experiment item","yes","red","no","None","diamond",NA,"pinging_target_expectations 4.0.osexp","C:\Users\etp-cp-ping\Desktop\LocalPC-EXP",75,"no","mono","no",18,"no","white","no","yes",1050,NA,100,"psycho",15,0,15,"C:/Users/etp-cp-ping/Desktop/LocalPC-EXP/subject-10.csv","psycho",2,16,16,"Lentiform Loewenfeld","3.3.8","['vert', 'vert', 'hori', 'hori', 'vert', 'hori', 'hori', 'vert']","yes",109,"circles","yes",0,NA,2,"legacy",NA,1024,2,48000,-16,"experiment",10,"even","green","no",2,"circle",453405.0796,453428.0876,453428.1284,NA,460349.0859,NA,NA,97665.0312000002,1368.05639999966,NA,97665.0552999999,503852.5883,506686.1165,NA,NA,NA,NA,1368.1330999998,460657.5693,NA,NA,503852.6029,460998.5461,503852.5406,"New experiment",19,"[0]","dist_absent",56,39,"yes","yes",1680,NA,NA,NA,NA,"NR","NR","lp",NA,"Left",NA,"Left",NA,NA,"practice",1,"NR","in"
"17",645.686599999899,15390.0609999984,15390.0609999984,11,11,"n",6,"['2', '4', 'space']","n","#000000","no",496438.8093,1,"neutral","psycho","psycho","psycho",0,"uniform",1,0,0,0,NA,0,0,NA,0,0,0,0,16,16,NA,NA,NA,NA,0,0,0,NA,16,0,16,73.2296414732588,"Thu Dec  2 11:15:44 2021","The main experiment item","yes","green","no","None","diamond",NA,"pinging_target_expectations 4.0.osexp","C:\Users\etp-cp-ping\Desktop\LocalPC-EXP",75,"no","mono","no",18,"no","white","no","yes",1050,NA,100,"psycho",16,0,16,"C:/Users/etp-cp-ping/Desktop/LocalPC-EXP/subject-10.csv","psycho",2,17,17,"Lentiform Loewenfeld","3.3.8","['vert', 'hori', 'vert', 'hori', 'hori', 'vert', 'hori', 'vert']","yes",109,"circles","yes",0,NA,2,"legacy",NA,1024,2,48000,-16,"experiment",10,"even","red","no",4,"circle",453405.0796,453428.0876,453428.1284,NA,460349.0859,NA,NA,97665.0312000002,1368.05639999966,NA,97665.0552999999,506716.5199,509118.077,NA,NA,NA,NA,1368.1330999998,460657.5693,NA,NA,506716.5345,460998.5461,506716.4714,"New experiment",19,"[0]","dist_absent",56,59,"yes","yes",1680,NA,NA,NA,NA,"NR","R","lp",NA,NA,NA,NA,NA,NA,"practice",2,"NR","in"
"18",716.587200000475,16106.6481999988,16106.6481999988,12,12,"n",6,"['2', '4', 'space']","n","#000000","no",509615.568,1,"neutral","psycho","psycho","psycho",0,"uniform",1,0,0,0,NA,0,0,NA,0,0,0,0,17,17,NA,NA,NA,NA,0,0,0,NA,17,0,17,73.2296414732588,"Thu Dec  2 11:15:44 2021","The main experiment item","yes","green","no","1","circle",NA,"pinging_target_expectations 4.0.osexp","C:\Users\etp-cp-ping\Desktop\LocalPC-EXP",75,"no","mono","no",18,"no","white","no","yes",1050,NA,100,"psycho",17,0,17,"C:/Users/etp-cp-ping/Desktop/LocalPC-EXP/subject-10.csv","psycho",3,18,18,"Lentiform Loewenfeld","3.3.8","['hori', 'vert', 'vert', 'hori', 'vert', 'vert', 'hori', 'hori']","yes",109,"circles","yes",0,NA,2,"legacy",NA,1024,2,48000,-16,"experiment",10,"even","red","no",3,"diamond",453405.0796,453428.0876,453428.1284,NA,460349.0859,NA,NA,97665.0312000002,1368.05639999966,NA,97665.0552999999,509148.6076,511710.1307,NA,NA,NA,NA,1368.1330999998,460657.5693,NA,NA,509148.6217,460998.5461,509148.558899999,"New experiment",19,"[0]","dist_present",56,42,"yes","no",1680,NA,NA,NA,NA,"NR","NR","lp",NA,NA,NA,NA,NA,NA,"practice",4,"NR","in"
"19",417.776400000555,16524.4245999994,16524.4245999994,12,12,"n",6,"['2', '4', 'space']","n","#000000","no",509615.568,1,"neutral","psycho","psycho","psycho",0,"uniform",0,0,0,0,NA,0,0,NA,0,0,0,0,18,18,NA,NA,NA,NA,0,0,0,NA,18,0,18,73.2296414732588,"Thu Dec  2 11:15:44 2021","The main experiment item","yes","green","no","2","diamond",NA,"pinging_target_expectations 4.0.osexp","C:\Users\etp-cp-ping\Desktop\LocalPC-EXP",75,"no","mono","no",18,"no","white","no","yes",1050,NA,100,"psycho",18,0,18,"C:/Users/etp-cp-ping/Desktop/LocalPC-EXP/subject-10.csv","psycho",3,19,19,"Lentiform Loewenfeld","3.3.8","['vert', 'vert', 'hori', 'hori', 'vert', 'hori', 'vert', 'hori']","no",209,"None","yes",0,NA,2,"legacy",NA,1024,2,48000,-16,"experiment",10,"even","red","no",6,"circle",453405.0796,453428.0876,453428.1284,NA,460349.0859,NA,NA,97665.0312000002,1368.05639999966,NA,97665.0552999999,511740.6675,514142.0436,NA,NA,NA,NA,1368.1330999998,460657.5693,NA,NA,511740.6818,460998.5461,511740.6204,"New experiment",19,"[0]","dist_present",56,73,"yes","yes",1680,NA,NA,NA,NA,"NR","NR","lp",NA,NA,NA,NA,NA,NA,"practice",3,"NR","in"
"20",721.905800000066,17246.3303999995,17246.3303999995,13,13,"n",6,"['2', '4', 'space']","n","#000000","no",509615.568,1,"neutral","psycho","psycho","psycho",0,"uniform",1,0,0,0,NA,0,0,NA,0,0,0,0,19,19,NA,NA,NA,NA,0,0,0,NA,19,0,19,73.2296414732588,"Thu Dec  2 11:15:44 2021","The main experiment item","yes","red","no","None","diamond",NA,"pinging_target_expectations 4.0.osexp","C:\Users\etp-cp-ping\Desktop\LocalPC-EXP",75,"no","mono","no",18,"no","white","no","yes",1050,NA,100,"psycho",19,0,19,"C:/Users/etp-cp-ping/Desktop/LocalPC-EXP/subject-10.csv","psycho",3,20,20,"Lentiform Loewenfeld","3.3.8","['vert', 'vert', 'hori', 'hori', 'hori', 'vert', 'vert', 'hori']","no",209,"None","yes",0,NA,2,"legacy",NA,1024,2,48000,-16,"experiment",10,"even","green","no",2,"circle",453405.0796,453428.0876,453428.1284,NA,460349.0859,NA,NA,97665.0312000002,1368.05639999966,NA,97665.0552999999,514172.3694,516702.118,NA,NA,NA,NA,1368.1330999998,460657.5693,NA,NA,514172.3838,460998.5461,514172.3196,"New experiment",19,"[0]","dist_absent",56,39,"yes","yes",1680,NA,NA,NA,NA,"NR","NR","lp",NA,"Left",NA,"Left",NA,NA,"practice",6,"NR","in"
"21",596.088399999659,17842.4187999991,17842.4187999991,13,13,"n",6,"['2', '4', 'space']","n","#000000","no",509615.568,1,"neutral","psycho","psycho","psycho",0,"uniform",0,0,0,0,NA,0,0,NA,0,0,0,0,20,20,NA,NA,NA,NA,0,0,0,NA,20,0,20,73.2296414732588,"Thu Dec  2 11:15:44 2021","The main experiment item","yes","red","no","4","circle",NA,"pinging_target_expectations 4.0.osexp","C:\Users\etp-cp-ping\Desktop\LocalPC-EXP",75,"no","mono","no",18,"no","white","no","yes",1050,NA,100,"psycho",20,0,20,"C:/Users/etp-cp-ping/Desktop/LocalPC-EXP/subject-10.csv","psycho",3,21,21,"Lentiform Loewenfeld","3.3.8","['hori', 'hori', 'hori', 'vert', 'vert', 'hori', 'vert', 'vert']","no",209,"None","yes",0,NA,2,"legacy",NA,1024,2,48000,-16,"experiment",10,"even","green","no",0,"diamond",453405.0796,453428.0876,453428.1284,NA,460349.0859,NA,NA,97665.0312000002,1368.05639999966,NA,97665.0552999999,516732.6801,519358.0424,NA,NA,NA,NA,1368.1330999998,460657.5693,NA,NA,516732.6945,460998.5461,516732.6316,"New experiment",19,"[0]","dist_present",56,15,"yes","yes",1680,NA,NA,NA,NA,"NR","NR","lp",NA,NA,NA,NA,NA,NA,"practice",2,"NR","in"
"22",1036.48989999964,18878.9086999987,18878.9086999987,14,14,"n",6,"['2', '4', 'space']","n","#000000","no",509615.568,1,"neutral","psycho","psycho","psycho",0,"uniform",1,0,0,0,NA,0,0,NA,0,0,0,0,21,21,NA,NA,NA,NA,0,0,0,NA,21,0,21,73.2296414732588,"Thu Dec  2 11:15:44 2021","The main experiment item","yes","green","no","None","circle",NA,"pinging_target_expectations 4.0.osexp","C:\Users\etp-cp-ping\Desktop\LocalPC-EXP",75,"no","mono","no",18,"no","white","no","yes",1050,NA,100,"psycho",21,0,21,"C:/Users/etp-cp-ping/Desktop/LocalPC-EXP/subject-10.csv","psycho",3,22,22,"Lentiform Loewenfeld","3.3.8","['hori', 'hori', 'vert', 'vert', 'vert', 'vert', 'hori', 'hori']","yes",109,"circles","yes",0,NA,2,"legacy",NA,1024,2,48000,-16,"experiment",10,"even","red","no",2,"diamond",453405.0796,453428.0876,453428.1284,NA,460349.0859,NA,NA,97665.0312000002,1368.05639999966,NA,97665.0552999999,519390.173,522174.1724,NA,NA,NA,NA,1368.1330999998,460657.5693,NA,NA,519390.1874,460998.5461,519390.125,"New experiment",19,"[0]","dist_absent",56,39,"yes","yes",1680,NA,NA,NA,NA,"NR","NR","lp",NA,"Left",NA,"Left",NA,NA,"practice",0,"NR","in"
"23",962.373100000201,19841.2817999989,19841.2817999989,15,15,"n",6,"['2', '4', 'space']","n","#000000","no",509615.568,1,"neutral","psycho","psycho","psycho",0,"uniform",1,0,0,0,NA,0,0,NA,0,0,0,0,22,22,NA,NA,NA,NA,0,0,0,NA,22,0,22,73.2296414732588,"Thu Dec  2 11:15:44 2021","The main experiment item","yes","red","no","None","diamond",NA,"pinging_target_expectations 4.0.osexp","C:\Users\etp-cp-ping\Desktop\LocalPC-EXP",75,"no","mono","no",18,"no","white","no","yes",1050,NA,100,"psycho",22,0,22,"C:/Users/etp-cp-ping/Desktop/LocalPC-EXP/subject-10.csv","psycho",3,23,23,"Lentiform Loewenfeld","3.3.8","['hori', 'hori', 'vert', 'hori', 'vert', 'hori', 'vert', 'vert']","no",209,"None","yes",0,NA,2,"legacy",NA,1024,2,48000,-16,"experiment",10,"even","green","no",5,"circle",453405.0796,453428.0876,453428.1284,NA,460349.0859,NA,NA,97665.0312000002,1368.05639999966,NA,97665.0552999999,522205.8506,525118.0787,NA,NA,NA,NA,1368.1330999998,460657.5693,NA,NA,522205.8645,460998.5461,522205.8013,"New experiment",19,"[0, 78.33676152080294, 79.81060110248602, 80.64899403748572, 82.01974154391024, 85.69465457800375, 86.90690657339522, 86.79964093252876, 85.7700186892703, 84.60510994560224, 80.58192026766415, 77.85742023559787, 75.69845660915689, 74.06897871848264, 73.9029660343387, 73.9829596947541, 73.33213485201334, 73.50604199961639, 73.62101414097252, 73.81270983247866, 73.91245852953108, 73.71408417701382, 73.37423341938988, 74.47481411196985, 74.36828498441783, 73.23532999564424, 73.66315387803056, 73.94949839578751, 74.64187682120019, 73.35344669536764, 73.79283088246945, 74.13517313991765, 74.0557458352266, 74.17342045011998, 73.79791126138508, 74.3589035234105, 74.32661865196829, 73.5451440303802, 73.32186965581936, 73.39331237096162, 74.31878574131038, 73.98765729916295, 74.32661865196829, 73.79055682711856, 73.43798887802802, 73.82815360449686, 73.37094981568805, 73.31416068692155, 73.85232635739804, 73.42160394781517, 74.22145205608479, 73.86065635788741, 73.26281561179134, 73.75231358924525, 74.9910094709065, 75.4008742385501, 74.83292487607982, 74.92484022091207, 74.37584752012665, 75.0272738657791, 73.74261479840459, 73.7138251620402, 73.52127820984666, 73.31602712902905, 74.65773910193637, 75.05585683681261, 73.57310750837051, 74.16807571044694, 74.12727883038484, 74.06897871848264, 73.2977467439141, 73.24921724598279, 73.96715350318296, 73.86162617880473, 73.65787118363512]","dist_absent",56,69,"yes","yes",1680,NA,NA,NA,NA,"NR","R","lp",NA,"Right",NA,NA,NA,NA,"practice",2,"NR","in"
"24",846.202599999728,20687.4843999987,20687.4843999987,16,16,"n",6,"['2', '4', 'space']","n","#000000","no",525621.380099999,1,"neutral","psycho","psycho","psycho",0,"uniform",1,0,0,0,NA,0,0,NA,0,0,0,0,23,23,NA,NA,NA,NA,0,0,0,NA,23,0,23,73.2296414732588,"Thu Dec  2 11:15:44 2021","The main experiment item","yes","red","no","2","circle",NA,"pinging_target_expectations 4.0.osexp","C:\Users\etp-cp-ping\Desktop\LocalPC-EXP",75,"no","mono","no",18,"no","white","no","yes",1050,NA,100,"psycho",23,0,23,"C:/Users/etp-cp-ping/Desktop/LocalPC-EXP/subject-10.csv","psycho",4,24,24,"Lentiform Loewenfeld","3.3.8","['vert', 'vert', 'hori', 'vert', 'hori', 'vert', 'hori', 'hori']","no",209,"None","yes",0,NA,2,"legacy",NA,1024,2,48000,-16,"experiment",10,"even","green","no",4,"diamond",453405.0796,453428.0876,453428.1284,NA,460349.0859,NA,NA,97665.0312000002,1368.05639999966,NA,97665.0552999999,525148.6114,527982.062399999,NA,NA,NA,NA,1368.1330999998,460657.5693,NA,NA,525148.6258,460998.5461,525148.5631,"New experiment",19,"[0]","dist_present",56,53,"yes","no",1680,NA,NA,NA,NA,"NR","NR","lp","Left",NA,"Left",NA,NA,NA,"practice",5,"NR","in"
"25",715.779900000547,21403.2642999992,21403.2642999992,17,17,"n",6,"['2', '4', 'space']","n","#000000","no",525621.380099999,1,"neutral","psycho","psycho","psycho",0,"uniform",1,0,0,0,NA,0,0,NA,0,0,0,0,24,24,NA,NA,NA,NA,0,0,0,NA,24,0,24,73.2296414732588,"Thu Dec  2 11:15:44 2021","The main experiment item","yes","green","no","0","circle",NA,"pinging_target_expectations 4.0.osexp","C:\Users\etp-cp-ping\Desktop\LocalPC-EXP",75,"no","mono","no",18,"no","white","no","yes",1050,NA,100,"psycho",24,0,24,"C:/Users/etp-cp-ping/Desktop/LocalPC-EXP/subject-10.csv","psycho",4,25,25,"Lentiform Loewenfeld","3.3.8","['hori', 'hori', 'hori', 'vert', 'vert', 'vert', 'hori', 'vert']","yes",109,"diamond","yes",0,NA,2,"legacy",NA,1024,2,48000,-16,"experiment",10,"even","red","no",3,"diamond",453405.0796,453428.0876,453428.1284,NA,460349.0859,NA,NA,97665.0312000002,1368.05639999966,NA,97665.0552999999,528012.2809,530670.0438,NA,NA,NA,NA,1368.1330999998,460657.5693,NA,NA,528012.2951,460998.5461,528012.232,"New experiment",19,"[0]","dist_present",56,41,"yes","yes",1680,NA,NA,NA,NA,"NR","NR","lp",NA,"Left",NA,NA,NA,NA,"practice",4,"NR","in"
"26",1192.35990000016,22595.6241999994,22595.6241999994,17,17,"n",6,"['2', '4', 'space']","n","#000000","no",525621.380099999,1,"neutral","psycho","psycho","psycho",0,"uniform",0,0,0,0,NA,0,0,NA,0,0,0,0,25,25,NA,NA,NA,NA,0,0,0,NA,25,0,25,73.2296414732588,"Thu Dec  2 11:15:44 2021","The main experiment item","yes","green","no","6","diamond",NA,"pinging_target_expectations 4.0.osexp","C:\Users\etp-cp-ping\Desktop\LocalPC-EXP",75,"no","mono","no",18,"no","white","no","yes",1050,NA,100,"psycho",25,0,25,"C:/Users/etp-cp-ping/Desktop/LocalPC-EXP/subject-10.csv","psycho",4,26,26,"Lentiform Loewenfeld","3.3.8","['vert', 'hori', 'vert', 'vert', 'hori', 'vert', 'hori', 'hori']","no",209,"None","yes",0,NA,2,"legacy",NA,1024,2,48000,-16,"experiment",10,"even","red","no",1,"circle",453405.0796,453428.0876,453428.1284,NA,460349.0859,NA,NA,97665.0312000002,1368.05639999966,NA,97665.0552999999,530700.4138,533934.1306,NA,NA,NA,NA,1368.1330999998,460657.5693,NA,NA,530700.4282,460998.5461,530700.3652,"New experiment",19,"[0]","dist_present",56,27,"yes","yes",1680,NA,NA,NA,NA,"NR","NR","lp",NA,NA,NA,NA,NA,NA,"practice",3,"NR","in"
"27",1146.11329999939,23741.7374999988,23741.7374999988,18,18,"n",6,"['2', '4', 'space']","n","#000000","no",534520.5528,1,"neutral","psycho","psycho","psycho",0,"uniform",1,0,0,0,NA,0,0,NA,0,0,0,0,26,26,NA,NA,NA,NA,0,0,0,NA,26,0,26,73.2296414732588,"Thu Dec  2 11:15:44 2021","The main experiment item","yes","red","no","4","diamond",NA,"pinging_target_expectations 4.0.osexp","C:\Users\etp-cp-ping\Desktop\LocalPC-EXP",75,"no","mono","no",18,"no","white","no","yes",1050,NA,100,"psycho",26,0,26,"C:/Users/etp-cp-ping/Desktop/LocalPC-EXP/subject-10.csv","psycho",5,27,27,"Lentiform Loewenfeld","3.3.8","['vert', 'hori', 'hori', 'vert', 'hori', 'vert', 'vert', 'hori']","no",209,"None","yes",0,NA,2,"legacy",NA,1024,2,48000,-16,"experiment",10,"even","green","no",6,"circle",453405.0796,453428.0876,453428.1284,NA,460349.0859,NA,NA,97665.0312000002,1368.05639999966,NA,97665.0552999999,533964.6654,536942.0774,NA,NA,NA,NA,1368.1330999998,460657.5693,NA,NA,533964.6796,460998.5461,533964.617,"New experiment",19,"[0, 79.68951265841426, 106.16804577118221, 129.03366629904914, 159.14974511330408, 178.39840332138047, 207.89062326780524, 242.4843734595508, 258.68231039714067, 285.1687278434382, 325.1293912989505, 356.8467259008187, 393.027430832403, 406.4910226669099, 477.438713715179, 511.93737752610264, 549.8661987371764, 593.8532534830161, 617.3282362681528]","dist_present",56,75,"yes","no",1680,NA,NA,NA,NA,"NR","NR","lp",NA,"Right",NA,"Right",NA,NA,"practice",1,"NR","in"
"28",882.378799999948,24624.1162999987,24624.1162999987,18,18,"n",6,"['2', '4', 'space']","n","#000000","no",534520.5528,1,"neutral","psycho","psycho","psycho",0,"uniform",0,0,0,0,NA,0,0,NA,0,0,0,0,27,27,NA,NA,NA,NA,0,0,0,NA,27,0,27,73.2296414732588,"Thu Dec  2 11:15:44 2021","The main experiment item","yes","green","no","None","diamond",NA,"pinging_target_expectations 4.0.osexp","C:\Users\etp-cp-ping\Desktop\LocalPC-EXP",75,"no","mono","no",18,"no","white","no","yes",1050,NA,100,"psycho",27,0,27,"C:/Users/etp-cp-ping/Desktop/LocalPC-EXP/subject-10.csv","psycho",5,28,28,"Lentiform Loewenfeld","3.3.8","['vert', 'vert', 'hori', 'hori', 'hori', 'hori', 'vert', 'vert']","yes",109,"circles","yes",0,NA,2,"legacy",NA,1024,2,48000,-16,"experiment",10,"even","red","no",0,"circle",453405.0796,453428.0876,453428.1284,NA,460349.0859,NA,NA,97665.0312000002,1368.05639999966,NA,97665.0552999999,536972.5218,539838.0666,NA,NA,NA,NA,1368.1330999998,460657.5693,NA,NA,536972.535899999,460998.5461,536972.474,"New experiment",19,"[0]","dist_absent",56,19,"yes","yes",1680,NA,NA,NA,NA,"NR","NR","lp",NA,NA,NA,NA,NA,NA,"practice",6,"NR","in"
"29",881.090399999288,25505.206699998,25505.206699998,18,18,"n",6,"['2', '4', 'space']","n","#000000","no",534520.5528,1,"neutral","psycho","psycho","psycho",0,"uniform",0,0,0,0,NA,0,0,NA,0,0,0,0,28,28,NA,NA,NA,NA,0,0,0,NA,28,0,28,73.2296414732588,"Thu Dec  2 11:15:44 2021","The main experiment item","yes","red","no","6","diamond",NA,"pinging_target_expectations 4.0.osexp","C:\Users\etp-cp-ping\Desktop\LocalPC-EXP",75,"no","mono","no",18,"no","white","no","yes",1050,NA,100,"psycho",28,0,28,"C:/Users/etp-cp-ping/Desktop/LocalPC-EXP/subject-10.csv","psycho",5,29,29,"Lentiform Loewenfeld","3.3.8","['vert', 'vert', 'hori', 'hori', 'vert', 'hori', 'hori', 'vert']","yes",109,"diamond","yes",0,NA,2,"legacy",NA,1024,2,48000,-16,"experiment",10,"even","green","no",7,"circle",453405.0796,453428.0876,453428.1284,NA,460349.0859,NA,NA,97665.0312000002,1368.05639999966,NA,97665.0552999999,539868.4685,542734.0597,NA,NA,NA,NA,1368.1330999998,460657.5693,NA,NA,539868.4826,460998.5461,539868.42,"New experiment",19,"[0]","dist_present",56,87,"yes","yes",1680,NA,NA,NA,NA,"NR","NR","lp",NA,NA,NA,NA,NA,NA,"practice",0,"NR","in"
"30",791.698100000853,26296.9047999989,26296.9047999989,19,19,"n",6,"['2', '4', 'space']","n","#000000","no",534520.5528,1,"neutral","psycho","psycho","psycho",0,"uniform",1,0,0,0,NA,0,0,NA,0,0,0,0,29,29,NA,NA,NA,NA,0,0,0,NA,29,0,29,73.2296414732588,"Thu Dec  2 11:15:44 2021","The main experiment item","yes","red","no","2","diamond",NA,"pinging_target_expectations 4.0.osexp","C:\Users\etp-cp-ping\Desktop\LocalPC-EXP",75,"no","mono","no",18,"no","white","no","yes",1050,NA,100,"psycho",29,0,29,"C:/Users/etp-cp-ping/Desktop/LocalPC-EXP/subject-10.csv","psycho",5,30,30,"Lentiform Loewenfeld","3.3.8","['vert', 'vert', 'vert', 'hori', 'vert', 'hori', 'hori', 'hori']","yes",109,"circles","yes",0,NA,2,"legacy",NA,1024,2,48000,-16,"experiment",10,"even","green","no",7,"circle",453405.0796,453428.0876,453428.1284,NA,460349.0859,NA,NA,97665.0312000002,1368.05639999966,NA,97665.0552999999,542764.4611,545662.054599999,NA,NA,NA,NA,1368.1330999998,460657.5693,NA,NA,542764.4757,460998.5461,542764.413,"New experiment",19,"[0]","dist_present",56,83,"yes","yes",1680,NA,NA,NA,NA,"R","NR","lp",NA,NA,NA,NA,NA,NA,"practice",7,"NR","in"
"31",1398.20969999977,27695.1144999986,27695.1144999986,19,19,"n",6,"['2', '4', 'space']","n","#000000","no",534520.5528,1,"neutral","psycho","psycho","psycho",0,"uniform",0,0,0,0,NA,0,0,NA,0,0,0,0,30,30,NA,NA,NA,NA,0,0,0,NA,30,0,30,73.2296414732588,"Thu Dec  2 11:15:44 2021","The main experiment item","yes","red","no","None","diamond",NA,"pinging_target_expectations 4.0.osexp","C:\Users\etp-cp-ping\Desktop\LocalPC-EXP",75,"no","mono","no",18,"no","white","no","yes",1050,NA,100,"psycho",30,0,30,"C:/Users/etp-cp-ping/Desktop/LocalPC-EXP/subject-10.csv","psycho",5,31,31,"Lentiform Loewenfeld","3.3.8","['hori', 'vert', 'hori', 'vert', 'hori', 'vert', 'hori', 'vert']","yes",109,"circles","yes",0,NA,2,"legacy",NA,1024,2,48000,-16,"experiment",10,"even","green","no",0,"circle",453405.0796,453428.0876,453428.1284,NA,460349.0859,NA,NA,97665.0312000002,1368.05639999966,NA,97665.0552999999,545692.5758,548974.1154,NA,NA,NA,NA,1368.1330999998,460657.5693,NA,NA,545692.5902,460998.5461,545692.5283,"New experiment",19,"[0]","dist_absent",56,19,"yes","yes",1680,NA,NA,NA,NA,"NR","NR","lp",NA,NA,NA,NA,NA,NA,"practice",7,"R","in"
"32",1100.07310000039,28795.187599999,28795.187599999,20,20,"n",6,"['2', '4', 'space']","n","#000000","no",549493.3577,1,"neutral","psycho","psycho","psycho",0,"uniform",1,0,0,0,NA,0,0,NA,0,0,0,0,31,31,NA,NA,NA,NA,0,0,0,NA,31,0,31,73.2296414732588,"Thu Dec  2 11:15:44 2021","The main experiment item","yes","red","no","5","circle",NA,"pinging_target_expectations 4.0.osexp","C:\Users\etp-cp-ping\Desktop\LocalPC-EXP",75,"no","mono","no",18,"no","white","no","yes",1050,NA,100,"psycho",31,0,31,"C:/Users/etp-cp-ping/Desktop/LocalPC-EXP/subject-10.csv","psycho",6,32,32,"Lentiform Loewenfeld","3.3.8","['hori', 'hori', 'hori', 'vert', 'hori', 'vert', 'vert', 'vert']","no",209,"None","yes",0,NA,2,"legacy",NA,1024,2,48000,-16,"experiment",10,"even","green","no",2,"diamond",453405.0796,453428.0876,453428.1284,NA,460349.0859,NA,NA,97665.0312000002,1368.05639999966,NA,97665.0552999999,549004.6033,552046.0495,NA,NA,NA,NA,1368.1330999998,460657.5693,NA,NA,549004.617699999,460998.5461,549004.554,"New experiment",19,"[0]","dist_present",56,36,"yes","yes",1680,NA,NA,NA,NA,"NR","NR","lp",NA,NA,NA,NA,NA,NA,"practice",0,"NR","in"
"33",703.90370000049,29499.0912999995,29499.0912999995,21,21,"n",6,"['2', '4', 'space']","n","#000000","no",549493.3577,1,"neutral","psycho","psycho","psycho",0,"uniform",1,0,0,0,NA,0,0,NA,0,0,0,0,32,32,NA,NA,NA,NA,0,0,0,NA,32,0,32,73.2296414732588,"Thu Dec  2 11:15:44 2021","The main experiment item","yes","green","no","None","circle",NA,"pinging_target_expectations 4.0.osexp","C:\Users\etp-cp-ping\Desktop\LocalPC-EXP",75,"no","mono","no",18,"no","white","no","yes",1050,NA,100,"psycho",32,0,32,"C:/Users/etp-cp-ping/Desktop/LocalPC-EXP/subject-10.csv","psycho",6,33,33,"Lentiform Loewenfeld","3.3.8","['vert', 'hori', 'hori', 'hori', 'vert', 'hori', 'vert', 'vert']","no",209,"None","yes",0,NA,2,"legacy",NA,1024,2,48000,-16,"experiment",10,"even","red","no",4,"diamond",453405.0796,453428.0876,453428.1284,NA,460349.0859,NA,NA,97665.0312000002,1368.05639999966,NA,97665.0552999999,552076.6821,554494.0666,NA,NA,NA,NA,1368.1330999998,460657.5693,NA,NA,552076.6968,460998.5461,552076.6343,"New experiment",19,"[0]","dist_absent",56,59,"yes","yes",1680,NA,NA,NA,NA,"NR","NR","lp",NA,NA,NA,NA,NA,NA,"practice",2,"NR","in"
"34",871.3568000003,30370.4480999998,30370.4480999998,21,21,"n",6,"['2', '4', 'space']","n","#000000","no",549493.3577,1,"neutral","psycho","psycho","psycho",0,"uniform",0,0,0,0,NA,0,0,NA,0,0,0,0,33,33,NA,NA,NA,NA,0,0,0,NA,33,0,33,73.2296414732588,"Thu Dec  2 11:15:44 2021","The main experiment item","yes","green","no","None","diamond",NA,"pinging_target_expectations 4.0.osexp","C:\Users\etp-cp-ping\Desktop\LocalPC-EXP",75,"no","mono","no",18,"no","white","no","yes",1050,NA,100,"psycho",33,0,33,"C:/Users/etp-cp-ping/Desktop/LocalPC-EXP/subject-10.csv","psycho",6,34,34,"Lentiform Loewenfeld","3.3.8","['hori', 'vert', 'vert', 'vert', 'hori', 'hori', 'hori', 'vert']","yes",109,"diamond","yes",0,NA,2,"legacy",NA,1024,2,48000,-16,"experiment",10,"even","red","no",1,"circle",453405.0796,453428.0876,453428.1284,NA,460349.0859,NA,NA,97665.0312000002,1368.05639999966,NA,97665.0552999999,554524.4302,557262.052,NA,NA,NA,NA,1368.1330999998,460657.5693,NA,NA,554524.4447,460998.5461,554524.3807,"New experiment",19,"[0, 73.74562831323422, 78.96895412333113, 80.17463601877704, 80.4437488467337, 78.22280040951517, 73.29335068004083, 75.40000984333885, 75.00240953161085, 75.91289689532508, 78.32749039739413, 81.55444460041605, 83.78815274856207, 83.5474561065464, 83.67673203106813, 79.669386636228, 80.875524957246, 76.1804050512353, 75.39721815406217, 75.37432888965948, 75.72716868567834, 76.03270681018797, 76.26384892805703, 74.50654051879819, 74.47178748592249, 74.28383595164937, 73.61917060300078, 75.32994449161714, 76.20534168654613, 75.45758530576317, 76.02633820961815, 75.15370110023058, 74.86715262377979, 73.94116602215297]","dist_absent",56,29,"yes","yes",1680,NA,NA,NA,NA,"NR","R","lp",NA,"Left",NA,NA,NA,NA,"practice",4,"NR","in"
"35",1141.05569999991,31511.5037999997,31511.5037999997,22,22,"n",6,"['2', '4', 'space']","n","#000000","no",549493.3577,1,"neutral","psycho","psycho","psycho",0,"uniform",1,0,0,0,NA,0,0,NA,0,0,0,0,34,34,NA,NA,NA,NA,0,0,0,NA,34,0,34,73.2296414732588,"Thu Dec  2 11:15:44 2021","The main experiment item","yes","green","no","5","circle",NA,"pinging_target_expectations 4.0.osexp","C:\Users\etp-cp-ping\Desktop\LocalPC-EXP",75,"no","mono","no",18,"no","white","no","yes",1050,NA,100,"psycho",34,0,34,"C:/Users/etp-cp-ping/Desktop/LocalPC-EXP/subject-10.csv","psycho",6,35,35,"Lentiform Loewenfeld","3.3.8","['hori', 'hori', 'hori', 'vert', 'vert', 'vert', 'vert', 'hori']","yes",109,"diamond","yes",0,NA,2,"legacy",NA,1024,2,48000,-16,"experiment",10,"even","red","no",6,"diamond",453405.0796,453428.0876,453428.1284,NA,460349.0859,NA,NA,97665.0312000002,1368.05639999966,NA,97665.0552999999,557293.9357,560414.1116,NA,NA,NA,NA,1368.1330999998,460657.5693,NA,NA,557293.949899999,460998.5461,557293.8869,"New experiment",19,"[0, 74.48309989796648, 76.64579448671857, 77.54871090790166, 77.42002700241898, 75.74762954276788, 74.111615883659, 73.5826987787952]","dist_present",56,76,"yes","yes",1680,NA,NA,NA,NA,"NR","NR","lp",NA,NA,NA,NA,NA,NA,"practice",1,"NR","in"
"36",1050.90949999983,32562.4132999995,32562.4132999995,23,23,"n",6,"['2', '4', 'space']","n","#000000","no",549493.3577,1,"neutral","psycho","psycho","psycho",0,"uniform",1,0,0,0,NA,0,0,NA,0,0,0,0,35,35,NA,NA,NA,NA,0,0,0,NA,35,0,35,73.2296414732588,"Thu Dec  2 11:15:44 2021","The main experiment item","yes","green","no","2","diamond",NA,"pinging_target_expectations 4.0.osexp","C:\Users\etp-cp-ping\Desktop\LocalPC-EXP",75,"no","mono","no",18,"no","white","no","yes",1050,NA,100,"psycho",35,0,35,"C:/Users/etp-cp-ping/Desktop/LocalPC-EXP/subject-10.csv","psycho",6,36,36,"Lentiform Loewenfeld","3.3.8","['vert', 'hori', 'vert', 'hori', 'hori', 'hori', 'vert', 'vert']","no",209,"None","yes",0,NA,2,"legacy",NA,1024,2,48000,-16,"experiment",10,"even","red","no",4,"circle",453405.0796,453428.0876,453428.1284,NA,460349.0859,NA,NA,97665.0312000002,1368.05639999966,NA,97665.0552999999,560444.7077,563342.089799999,NA,NA,NA,NA,1368.1330999998,460657.5693,NA,NA,560444.7221,460998.5461,560444.6587,"New experiment",19,"[0]","dist_present",56,53,"yes","yes",1680,NA,NA,NA,NA,"NR","NR","lp","Left",NA,"Left",NA,NA,NA,"practice",6,"NR","in"
"37",1243.04279999982,33805.4560999994,33805.4560999994,23,23,"n",6,"['2', '4', 'space']","n","#000000","no",563824.6172,1,"neutral","psycho","psycho","psycho",0,"uniform",0,0,0,0,NA,0,0,NA,0,0,0,0,36,36,NA,NA,NA,NA,0,0,0,NA,36,0,36,73.2296414732588,"Thu Dec  2 11:15:44 2021","The main experiment item","yes","red","no","None","diamond",NA,"pinging_target_expectations 4.0.osexp","C:\Users\etp-cp-ping\Desktop\LocalPC-EXP",75,"no","mono","no",18,"no","white","no","yes",1050,NA,100,"psycho",36,0,36,"C:/Users/etp-cp-ping/Desktop/LocalPC-EXP/subject-10.csv","psycho",7,37,37,"Lentiform Loewenfeld","3.3.8","['hori', 'hori', 'vert', 'vert', 'hori', 'vert', 'hori', 'vert']","yes",109,"diamond","yes",0,NA,2,"legacy",NA,1024,2,48000,-16,"experiment",10,"even","green","no",5,"circle",453405.0796,453428.0876,453428.1284,NA,460349.0859,NA,NA,97665.0312000002,1368.05639999966,NA,97665.0552999999,563372.4015,566286.0423,NA,NA,NA,NA,1368.1330999998,460657.5693,NA,NA,563372.4157,460998.5461,563372.3533,"New experiment",19,"[0]","dist_absent",56,69,"yes","yes",1680,NA,NA,NA,NA,"NR","NR","lp",NA,"Right",NA,NA,NA,NA,"practice",4,"NR","in"
"38",1077.22009999992,34882.6761999993,34882.6761999993,24,24,"n",6,"['2', '4', 'space']","n","#000000","no",566811.1692,1,"neutral","psycho","psycho","psycho",0,"uniform",1,0,0,0,NA,0,0,NA,0,0,0,0,37,37,NA,NA,NA,NA,0,0,0,NA,37,0,37,73.2296414732588,"Thu Dec  2 11:15:44 2021","The main experiment item","yes","green","no","5","circle",NA,"pinging_target_expectations 4.0.osexp","C:\Users\etp-cp-ping\Desktop\LocalPC-EXP",75,"no","mono","no",18,"no","white","no","yes",1050,NA,100,"psycho",37,0,37,"C:/Users/etp-cp-ping/Desktop/LocalPC-EXP/subject-10.csv","psycho",8,38,38,"Lentiform Loewenfeld","3.3.8","['hori', 'vert', 'vert', 'hori', 'vert', 'vert', 'hori', 'hori']","no",209,"None","yes",0,NA,2,"legacy",NA,1024,2,48000,-16,"experiment",10,"even","red","no",1,"diamond",453405.0796,453428.0876,453428.1284,NA,460349.0859,NA,NA,97665.0312000002,1368.05639999966,NA,97665.0552999999,566316.896,569182.0489,NA,NA,NA,NA,1368.1330999998,460657.5693,NA,NA,566316.912,460998.5461,566316.7529,"New experiment",19,"[0]","dist_present",56,26,"yes","yes",1680,NA,NA,NA,NA,"NR","NR","lp",NA,NA,NA,NA,NA,NA,"practice",5,"NR","in"
"39",777.796999999671,35660.473199999,35660.473199999,25,25,"n",6,"['2', '4', 'space']","n","#000000","no",566811.1692,1,"neutral","psycho","psycho","psycho",0,"uniform",1,0,0,0,NA,0,0,NA,0,0,0,0,38,38,NA,NA,NA,NA,0,0,0,NA,38,0,38,73.2296414732588,"Thu Dec  2 11:15:44 2021","The main experiment item","yes","green","no","7","diamond",NA,"pinging_target_expectations 4.0.osexp","C:\Users\etp-cp-ping\Desktop\LocalPC-EXP",75,"no","mono","no",18,"no","white","no","yes",1050,NA,100,"psycho",38,0,38,"C:/Users/etp-cp-ping/Desktop/LocalPC-EXP/subject-10.csv","psycho",8,39,39,"Lentiform Loewenfeld","3.3.8","['hori', 'vert', 'vert', 'vert', 'hori', 'vert', 'hori', 'hori']","no",209,"None","yes",0,NA,2,"legacy",NA,1024,2,48000,-16,"experiment",10,"even","red","no",3,"circle",453405.0796,453428.0876,453428.1284,NA,460349.0859,NA,NA,97665.0312000002,1368.05639999966,NA,97665.0552999999,569212.5784,571806.083,NA,NA,NA,NA,1368.1330999998,460657.5693,NA,NA,569212.5954,460998.5461,569212.5301,"New experiment",19,"[0]","dist_present",56,48,"yes","yes",1680,NA,NA,NA,NA,"NR","NR","lp",NA,NA,NA,NA,NA,NA,"practice",1,"NR","in"
"40",850.207800000207,36510.6809999992,36510.6809999992,26,26,"n",6,"['2', '4', 'space']","n","#000000","no",566811.1692,1,"neutral","psycho","psycho","psycho",0,"uniform",1,0,0,0,NA,0,0,NA,0,0,0,0,39,39,NA,NA,NA,NA,0,0,0,NA,39,0,39,73.2296414732588,"Thu Dec  2 11:15:44 2021","The main experiment item","yes","green","no","None","diamond",NA,"pinging_target_expectations 4.0.osexp","C:\Users\etp-cp-ping\Desktop\LocalPC-EXP",75,"no","mono","no",18,"no","white","no","yes",1050,NA,100,"psycho",39,0,39,"C:/Users/etp-cp-ping/Desktop/LocalPC-EXP/subject-10.csv","psycho",8,40,40,"Lentiform Loewenfeld","3.3.8","['hori', 'hori', 'hori', 'vert', 'vert', 'vert', 'vert', 'hori']","no",209,"None","yes",0,NA,2,"legacy",NA,1024,2,48000,-16,"experiment",10,"even","red","no",5,"circle",453405.0796,453428.0876,453428.1284,NA,460349.0859,NA,NA,97665.0312000002,1368.05639999966,NA,97665.0552999999,571836.6472,574590.0629,NA,NA,NA,NA,1368.1330999998,460657.5693,NA,NA,571836.6615,460998.5461,571836.5983,"New experiment",19,"[0, 81.67453687132134, 94.73506884487531, 100.31575886694735, 102.8058773275472, 113.33849139993481, 121.18226765756224, 126.77225812332955, 135.1879440078827, 138.00745298743422, 140.2127323828575, 139.52722847298412, 142.83900039618027, 143.05274394876065, 142.87931970722704, 142.6201509552449, 140.91373155662026, 136.65405073586302, 134.41001251709076, 133.45622438884445, 130.27430195553052, 129.21067679965222, 129.18551241781367, 124.17572847770994, 123.67818096288937, 123.82324941111547, 124.55438079174417, 123.40089273238154, 125.01668089871399, 125.19304093103314, 125.85081915363848, 130.87221962147845, 132.91565238682483, 130.25625670065955, 131.13808872875353, 132.73633475046907, 134.38865562881392, 135.2581636897668, 131.67025681892804, 130.67078089043613, 131.7912347544622, 132.77971612839616, 133.03103807866006, 132.80015220173877, 132.81312221361713, 132.94097053937122, 131.4318913653427, 131.08050304606456, 130.90674349766846, 131.89389675038038]","dist_absent",56,69,"yes","yes",1680,NA,NA,NA,NA,"NR","NR","lp",NA,"Right",NA,NA,NA,NA,"practice",3,"NR","in"
"41",865.730299999937,37376.4112999991,37376.4112999991,27,27,"n",6,"['2', '4', 'space']","n","#000000","no",566811.1692,1,"neutral","psycho","psycho","psycho",0,"uniform",1,0,0,0,NA,0,0,NA,0,0,0,0,40,40,NA,NA,NA,NA,0,0,0,NA,40,0,40,73.2296414732588,"Thu Dec  2 11:15:44 2021","The main experiment item","yes","red","no","4","circle",NA,"pinging_target_expectations 4.0.osexp","C:\Users\etp-cp-ping\Desktop\LocalPC-EXP",75,"no","mono","no",18,"no","white","no","yes",1050,NA,100,"psycho",40,0,40,"C:/Users/etp-cp-ping/Desktop/LocalPC-EXP/subject-10.csv","psycho",8,41,41,"Lentiform Loewenfeld","3.3.8","['vert', 'hori', 'hori', 'vert', 'vert', 'vert', 'hori', 'hori']","yes",109,"circles","yes",0,NA,2,"legacy",NA,1024,2,48000,-16,"experiment",10,"even","green","no",3,"diamond",453405.0796,453428.0876,453428.1284,NA,460349.0859,NA,NA,97665.0312000002,1368.05639999966,NA,97665.0552999999,574621.9405,577374.0194,NA,NA,NA,NA,1368.1330999998,460657.5693,NA,NA,574621.955,460998.5461,574621.891199999,"New experiment",19,"[0]","dist_present",56,45,"yes","yes",1680,NA,NA,NA,NA,"NR","NR","lp",NA,"Left",NA,NA,NA,NA,"practice",5,"NR","in"
"42",619.773399999714,37996.1846999988,37996.1846999988,28,28,"n",6,"['2', '4', 'space']","n","#000000","no",566811.1692,1,"neutral","psycho","psycho","psycho",0,"uniform",1,0,0,0,NA,0,0,NA,0,0,0,0,41,41,NA,NA,NA,NA,0,0,0,NA,41,0,41,73.2296414732588,"Thu Dec  2 11:15:44 2021","The main experiment item","yes","red","no","None","circle",NA,"pinging_target_expectations 4.0.osexp","C:\Users\etp-cp-ping\Desktop\LocalPC-EXP",75,"no","mono","no",18,"no","white","no","yes",1050,NA,100,"psycho",41,0,41,"C:/Users/etp-cp-ping/Desktop/LocalPC-EXP/subject-10.csv","psycho",8,42,42,"Lentiform Loewenfeld","3.3.8","['hori', 'vert', 'vert', 'vert', 'vert', 'hori', 'hori', 'hori']","yes",109,"diamond","yes",0,NA,2,"legacy",NA,1024,2,48000,-16,"experiment",10,"even","green","no",4,"diamond",453405.0796,453428.0876,453428.1284,NA,460349.0859,NA,NA,97665.0312000002,1368.05639999966,NA,97665.0552999999,577405.7107,579902.0039,NA,NA,NA,NA,1368.1330999998,460657.5693,NA,NA,577405.7253,460998.5461,577405.6596,"New experiment",19,"[0]","dist_absent",56,59,"yes","yes",1680,NA,NA,NA,NA,"NR","NR","lp",NA,NA,NA,NA,NA,NA,"practice",3,"NR","in"
"43",1107.35410000058,39103.5387999994,39103.5387999994,28,28,"n",6,"['2', '4', 'space']","n","#000000","no",566811.1692,1,"neutral","psycho","psycho","psycho",0,"uniform",0,0,0,0,NA,0,0,NA,0,0,0,0,42,42,NA,NA,NA,NA,0,0,0,NA,42,0,42,73.2296414732588,"Thu Dec  2 11:15:44 2021","The main experiment item","yes","red","no","5","circle",NA,"pinging_target_expectations 4.0.osexp","C:\Users\etp-cp-ping\Desktop\LocalPC-EXP",75,"no","mono","no",18,"no","white","no","yes",1050,NA,100,"psycho",42,0,42,"C:/Users/etp-cp-ping/Desktop/LocalPC-EXP/subject-10.csv","psycho",8,43,43,"Lentiform Loewenfeld","3.3.8","['vert', 'vert', 'hori', 'hori', 'hori', 'vert', 'hori', 'vert']","yes",109,"diamond","yes",0,NA,2,"legacy",NA,1024,2,48000,-16,"experiment",10,"even","green","no",4,"diamond",453405.0796,453428.0876,453428.1284,NA,460349.0859,NA,NA,97665.0312000002,1368.05639999966,NA,97665.0552999999,579934.2219,582782.0263,NA,NA,NA,NA,1368.1330999998,460657.5693,NA,NA,579934.236399999,460998.5461,579934.1738,"New experiment",19,"[0]","dist_present",56,56,"yes","yes",1680,NA,NA,NA,NA,"R","NR","lp","Right",NA,NA,NA,NA,NA,"practice",4,"NR","in"
"44",706.572099999874,39810.1108999993,39810.1108999993,28,28,"n",6,"['2', '4', 'space']","n","#000000","no",566811.1692,1,"neutral","psycho","psycho","psycho",0,"uniform",0,0,0,0,NA,0,0,NA,0,0,0,0,43,43,NA,NA,NA,NA,0,0,0,NA,43,0,43,73.2296414732588,"Thu Dec  2 11:15:44 2021","The main experiment item","yes","green","no","3","diamond",NA,"pinging_target_expectations 4.0.osexp","C:\Users\etp-cp-ping\Desktop\LocalPC-EXP",75,"no","mono","no",18,"no","white","no","yes",1050,NA,100,"psycho",43,0,43,"C:/Users/etp-cp-ping/Desktop/LocalPC-EXP/subject-10.csv","psycho",8,44,44,"Lentiform Loewenfeld","3.3.8","['vert', 'vert', 'vert', 'hori', 'hori', 'hori', 'hori', 'vert']","yes",109,"diamond","yes",0,NA,2,"legacy",NA,1024,2,48000,-16,"experiment",10,"even","red","no",7,"circle",453405.0796,453428.0876,453428.1284,NA,460349.0859,NA,NA,97665.0312000002,1368.05639999966,NA,97665.0552999999,582812.3614,585534.0625,NA,NA,NA,NA,1368.1330999998,460657.5693,NA,NA,582812.3757,460998.5461,582812.3129,"New experiment",19,"[0]","dist_present",56,84,"yes","yes",1680,NA,NA,NA,NA,"NR","NR","lp",NA,NA,NA,NA,NA,NA,"practice",4,"R","in"
"45",964.089099999866,40774.1999999991,40774.1999999991,29,29,"n",6,"['2', '4', 'space']","n","#000000","no",586187.0765,1,"neutral","psycho","psycho","psycho",0,"uniform",1,0,0,0,NA,0,0,NA,0,0,0,0,44,44,NA,NA,NA,NA,0,0,0,NA,44,0,44,73.2296414732588,"Thu Dec  2 11:15:44 2021","The main experiment item","yes","red","no","4","diamond",NA,"pinging_target_expectations 4.0.osexp","C:\Users\etp-cp-ping\Desktop\LocalPC-EXP",75,"no","mono","no",18,"no","white","no","yes",1050,NA,100,"psycho",44,0,44,"C:/Users/etp-cp-ping/Desktop/LocalPC-EXP/subject-10.csv","psycho",9,45,45,"Lentiform Loewenfeld","3.3.8","['hori', 'vert', 'vert', 'vert', 'hori', 'hori', 'vert', 'hori']","yes",109,"circles","yes",0,NA,2,"legacy",NA,1024,2,48000,-16,"experiment",10,"even","green","no",2,"circle",453405.0796,453428.0876,453428.1284,NA,460349.0859,NA,NA,97665.0312000002,1368.05639999966,NA,97665.0552999999,585564.9821,588557.9508,NA,NA,NA,NA,1368.1330999998,460657.5693,NA,NA,585564.996399999,460998.5461,585564.933,"New experiment",19,"[0, 263.07300598786793, 277.3035072256203, 306.50743143901803, 327.85795713783574, 362.9063240011119, 378.80596655524414, 471.16443654228334, 473.0507604093126, 499.06019047387554, 546.7672855528044, 559.5820158265664, 568.5718834762127, 569.9576278967204, 585.8410454735351, 610.4398490407357, 624.5414863434338, 619.4849851420181, 637.9394040615415, 691.4553573432872, 706.7663884839358, 725.2852571729718, 723.0094450012654, 754.6042774668656]","dist_present",56,35,"yes","no",1680,NA,NA,NA,NA,"NR","NR","lp",NA,"Left",NA,"Left",NA,NA,"practice",7,"NR","in"
"46",1298.80709999998,42073.0070999991,42073.0070999991,30,30,"n",6,"['2', '4', 'space']","n","#000000","no",586187.0765,1,"neutral","psycho","psycho","psycho",0,"uniform",1,0,0,0,NA,0,0,NA,0,0,0,0,45,45,NA,NA,NA,NA,0,0,0,NA,45,0,45,73.2296414732588,"Thu Dec  2 11:15:44 2021","The main experiment item","yes","red","no","0","diamond",NA,"pinging_target_expectations 4.0.osexp","C:\Users\etp-cp-ping\Desktop\LocalPC-EXP",75,"no","mono","no",18,"no","white","no","yes",1050,NA,100,"psycho",45,0,45,"C:/Users/etp-cp-ping/Desktop/LocalPC-EXP/subject-10.csv","psycho",9,46,46,"Lentiform Loewenfeld","3.3.8","['hori', 'vert', 'hori', 'hori', 'vert', 'hori', 'vert', 'vert']","no",209,"None","yes",0,NA,2,"legacy",NA,1024,2,48000,-16,"experiment",10,"even","green","no",5,"circle",453405.0796,453428.0876,453428.1284,NA,460349.0859,NA,NA,97665.0312000002,1368.05639999966,NA,97665.0552999999,588588.2527,591614.1175,NA,NA,NA,NA,1368.1330999998,460657.5693,NA,NA,588588.2669,460998.5461,588588.2054,"New experiment",19,"[0]","dist_present",56,61,"yes","yes",1680,NA,NA,NA,NA,"NR","NR","lp",NA,"Right",NA,NA,NA,NA,"practice",2,"NR","in"
"47",879.885000000242,42952.8920999994,42952.8920999994,30,30,"n",6,"['2', '4', 'space']","n","#000000","no",592125.6934,1,"neutral","psycho","psycho","psycho",0,"uniform",0,0,0,0,NA,0,0,NA,0,0,0,0,46,46,NA,NA,NA,NA,0,0,0,NA,46,0,46,73.2296414732588,"Thu Dec  2 11:15:44 2021","The main experiment item","yes","green","no","3","circle",NA,"pinging_target_expectations 4.0.osexp","C:\Users\etp-cp-ping\Desktop\LocalPC-EXP",75,"no","mono","no",18,"no","white","no","yes",1050,NA,100,"psycho",46,0,46,"C:/Users/etp-cp-ping/Desktop/LocalPC-EXP/subject-10.csv","psycho",10,47,47,"Lentiform Loewenfeld","3.3.8","['hori', 'vert', 'vert', 'vert', 'hori', 'hori', 'vert', 'hori']","no",209,"None","yes",0,NA,2,"legacy",NA,1024,2,48000,-16,"experiment",10,"even","red","no",0,"diamond",453405.0796,453428.0876,453428.1284,NA,460349.0859,NA,NA,97665.0312000002,1368.05639999966,NA,97665.0552999999,591644.8513,594462.0031,NA,NA,NA,NA,1368.1330999998,460657.5693,NA,NA,591644.8658,460998.5461,591644.8031,"New experiment",19,"[0]","dist_present",56,14,"yes","yes",1680,NA,NA,NA,NA,"NR","NR","lp","Left",NA,NA,NA,NA,NA,"practice",5,"NR","in"
"48",687.52630000026,43640.4183999996,43640.4183999996,30,30,"n",6,"['2', '4', 'space']","n","#000000","no",595068.7001,1,"neutral","psycho","psycho","psycho",0,"uniform",0,0,0,0,NA,0,0,NA,0,0,0,0,47,47,NA,NA,NA,NA,0,0,0,NA,47,0,47,73.2296414732588,"Thu Dec  2 11:15:44 2021","The main experiment item","yes","green","no","3","diamond",NA,"pinging_target_expectations 4.0.osexp","C:\Users\etp-cp-ping\Desktop\LocalPC-EXP",75,"no","mono","no",18,"no","white","no","yes",1050,NA,100,"psycho",47,0,47,"C:/Users/etp-cp-ping/Desktop/LocalPC-EXP/subject-10.csv","psycho",11,48,48,"Lentiform Loewenfeld","3.3.8","['vert', 'hori', 'vert', 'vert', 'hori', 'hori', 'vert', 'hori']","no",209,"None","yes",0,NA,2,"legacy",NA,1024,2,48000,-16,"experiment",10,"even","red","no",5,"circle",453405.0796,453428.0876,453428.1284,NA,460349.0859,NA,NA,97665.0312000002,1368.05639999966,NA,97665.0552999999,594494.3401,596990.0475,NA,NA,NA,NA,1368.1330999998,460657.5693,NA,NA,594494.3544,460998.5461,594494.2922,"New experiment",19,"[0, 75.11657606680433, 83.5373632256109, 95.18331786097832, 104.78788097867043, 109.64782218388432, 117.32149835836175, 120.84077013191519, 126.62530885559423, 134.54118173451513, 137.49195409698126, 137.42725996769093, 140.49761450863988, 142.31445777776312, 144.25511299261413, 143.9689130500242, 143.90219809713696, 145.29711574309542, 146.32183542275797, 142.98007345014668, 143.90588444070278, 141.43224227620001, 139.9330196915653, 137.18780107455626, 136.8579089643485, 131.47152193194827, 132.66314845137833, 128.18022950265285, 128.0000122070336, 129.75276710455682, 131.3738006345419, 131.95186042356139, 133.23204999364455, 134.37619129196216, 132.93595767426746, 134.58326333726794, 137.23096559261185, 137.28014192942916, 137.66867933032293, 137.6061163230489, 137.64839490570708, 138.94301167444607, 139.7601256691297, 138.2859567878357, 137.70146200807346, 137.94961694026406, 135.50830232867654, 137.3724921930474, 135.93764484547154, 138.04018280149893, 138.76316268153954, 139.83006375066975, 139.82483611619995, 138.01571619739767, 138.49551399760819, 138.0936329185291, 137.29513719453513, 136.10709975964008, 137.2160704873886, 139.66278213913648, 137.25192919544426, 137.48810648135503, 136.2463967234271, 137.80342782993458, 137.74196355123578, 138.75157111301073, 139.1980169308479, 139.79486614182215, 140.03237273944785, 140.33821794165573]","dist_present",56,64,"yes","yes",1680,NA,NA,NA,NA,"NR","R","lp",NA,NA,NA,NA,NA,NA,"practice",0,"NR","in"
"49",1478.74850000057,45119.1669000002,45119.1669000002,31,31,"n",6,"['2', '4', 'space']","n","#000000","no",595068.7001,1,"neutral","psycho","psycho","psycho",0,"uniform",1,0,0,0,NA,0,0,NA,0,0,0,0,48,48,NA,NA,NA,NA,0,0,0,NA,48,0,48,73.2296414732588,"Thu Dec  2 11:15:44 2021","The main experiment item","yes","red","no","5","circle",NA,"pinging_target_expectations 4.0.osexp","C:\Users\etp-cp-ping\Desktop\LocalPC-EXP",75,"no","mono","no",18,"no","white","no","yes",1050,NA,100,"psycho",48,0,48,"C:/Users/etp-cp-ping/Desktop/LocalPC-EXP/subject-10.csv","psycho",11,49,49,"Lentiform Loewenfeld","3.3.8","['hori', 'hori', 'vert', 'hori', 'hori', 'vert', 'vert', 'vert']","yes",109,"circles","yes",0,NA,2,"legacy",NA,1024,2,48000,-16,"experiment",10,"even","green","no",6,"diamond",453405.0796,453428.0876,453428.1284,NA,460349.0859,NA,NA,97665.0312000002,1368.05639999966,NA,97665.0552999999,597020.6551,600414.0437,NA,NA,NA,NA,1368.1330999998,460657.5693,NA,NA,597020.6691,460998.5461,597020.6063,"New experiment",19,"[0]","dist_present",56,76,"yes","yes",1680,NA,NA,NA,NA,"NR","NR","lp",NA,NA,NA,NA,NA,NA,"practice",5,"NR","in"
"50",591.950400000322,45711.1173000005,45711.1173000005,32,32,"n",6,"['2', '4', 'space']","n","#000000","no",595068.7001,1,"neutral","psycho","psycho","psycho",0,"uniform",1,0,0,0,NA,0,0,NA,0,0,0,0,49,49,NA,NA,NA,NA,0,0,0,NA,49,0,49,73.2296414732588,"Thu Dec  2 11:15:44 2021","The main experiment item","yes","green","no","7","circle",NA,"pinging_target_expectations 4.0.osexp","C:\Users\etp-cp-ping\Desktop\LocalPC-EXP",75,"no","mono","no",18,"no","white","no","yes",1050,NA,100,"psycho",49,0,49,"C:/Users/etp-cp-ping/Desktop/LocalPC-EXP/subject-10.csv","psycho",11,50,50,"Lentiform Loewenfeld","3.3.8","['vert', 'hori', 'hori', 'hori', 'vert', 'vert', 'hori', 'vert']","yes",109,"circles","yes",0,NA,2,"legacy",NA,1024,2,48000,-16,"experiment",10,"even","red","no",3,"diamond",453405.0796,453428.0876,453428.1284,NA,460349.0859,NA,NA,97665.0312000002,1368.05639999966,NA,97665.0552999999,600444.5094,603182.046899999,NA,NA,NA,NA,1368.1330999998,460657.5693,NA,NA,600444.5237,460998.5461,600444.4613,"New experiment",19,"[0]","dist_present",56,48,"yes","yes",1680,NA,NA,NA,NA,"NR","NR","lp",NA,NA,NA,NA,NA,NA,"practice",6,"NR","in"
"51",861.628599999705,46572.7459000002,46572.7459000002,33,33,"n",6,"['2', '4', 'space']","n","#000000","no",595068.7001,1,"neutral","psycho","psycho","psycho",0,"uniform",1,0,0,0,NA,0,0,NA,0,0,0,0,50,50,NA,NA,NA,NA,0,0,0,NA,50,0,50,73.2296414732588,"Thu Dec  2 11:15:44 2021","The main experiment item","yes","red","no","7","diamond",NA,"pinging_target_expectations 4.0.osexp","C:\Users\etp-cp-ping\Desktop\LocalPC-EXP",75,"no","mono","no",18,"no","white","no","yes",1050,NA,100,"psycho",50,0,50,"C:/Users/etp-cp-ping/Desktop/LocalPC-EXP/subject-10.csv","psycho",11,51,51,"Lentiform Loewenfeld","3.3.8","['vert', 'vert', 'hori', 'hori', 'vert', 'hori', 'hori', 'vert']","no",209,"None","yes",0,NA,2,"legacy",NA,1024,2,48000,-16,"experiment",10,"even","green","no",0,"circle",453405.0796,453428.0876,453428.1284,NA,460349.0859,NA,NA,97665.0312000002,1368.05639999966,NA,97665.0552999999,603212.3752,605997.9738,NA,NA,NA,NA,1368.1330999998,460657.5693,NA,NA,603212.3892,460998.5461,603212.3262,"New experiment",19,"[0]","dist_present",56,18,"yes","yes",1680,NA,NA,NA,NA,"NR","R","lp","Right",NA,NA,NA,NA,NA,"practice",3,"NR","in"
"52",853.341899999534,47426.0877999997,47426.0877999997,34,34,"n",6,"['2', '4', 'space']","n","#000000","no",595068.7001,1,"neutral","psycho","psycho","psycho",0,"uniform",1,0,0,0,NA,0,0,NA,0,0,0,0,51,51,NA,NA,NA,NA,0,0,0,NA,51,0,51,73.2296414732588,"Thu Dec  2 11:15:44 2021","The main experiment item","yes","green","no","0","diamond",NA,"pinging_target_expectations 4.0.osexp","C:\Users\etp-cp-ping\Desktop\LocalPC-EXP",75,"no","mono","no",18,"no","white","no","yes",1050,NA,100,"psycho",51,0,51,"C:/Users/etp-cp-ping/Desktop/LocalPC-EXP/subject-10.csv","psycho",11,52,52,"Lentiform Loewenfeld","3.3.8","['vert', 'vert', 'hori', 'hori', 'vert', 'hori', 'vert', 'hori']","no",209,"None","yes",0,NA,2,"legacy",NA,1024,2,48000,-16,"experiment",10,"even","red","no",6,"circle",453405.0796,453428.0876,453428.1284,NA,460349.0859,NA,NA,97665.0312000002,1368.05639999966,NA,97665.0552999999,606028.2976,608622.0124,NA,NA,NA,NA,1368.1330999998,460657.5693,NA,NA,606028.3119,460998.5461,606028.2488,"New experiment",19,"[0]","dist_present",56,71,"yes","yes",1680,NA,NA,NA,NA,"NR","NR","lp",NA,"Right",NA,"Right",NA,NA,"practice",0,"NR","in"
"53",1279.57719999994,48705.6649999997,48705.6649999997,35,35,"n",6,"['2', '4', 'space']","n","#000000","no",609240.0078,1,"neutral","psycho","psycho","psycho",0,"uniform",1,0,0,0,NA,0,0,NA,0,0,0,0,52,52,NA,NA,NA,NA,0,0,0,NA,52,0,52,73.2296414732588,"Thu Dec  2 11:15:44 2021","The main experiment item","yes","green","no","0","diamond",NA,"pinging_target_expectations 4.0.osexp","C:\Users\etp-cp-ping\Desktop\LocalPC-EXP",75,"no","mono","no",18,"no","white","no","yes",1050,NA,100,"psycho",52,0,52,"C:/Users/etp-cp-ping/Desktop/LocalPC-EXP/subject-10.csv","psycho",12,53,53,"Lentiform Loewenfeld","3.3.8","['hori', 'vert', 'hori', 'vert', 'hori', 'vert', 'vert', 'hori']","yes",109,"circles","yes",0,NA,2,"legacy",NA,1024,2,48000,-16,"experiment",10,"even","red","no",5,"circle",453405.0796,453428.0876,453428.1284,NA,460349.0859,NA,NA,97665.0312000002,1368.05639999966,NA,97665.0552999999,608653.8429,611838.1164,NA,NA,NA,NA,1368.1330999998,460657.5693,NA,NA,608653.857,460998.5461,608653.795,"New experiment",19,"[0]","dist_present",56,61,"yes","yes",1680,NA,NA,NA,NA,"NR","R","lp",NA,"Right",NA,NA,NA,NA,"practice",6,"NR","in"
"54",1416.01379999972,50121.6787999994,50121.6787999994,36,36,"n",6,"['2', '4', 'space']","n","#000000","no",609240.0078,1,"neutral","psycho","psycho","psycho",0,"uniform",1,0,0,0,NA,0,0,NA,0,0,0,0,53,53,NA,NA,NA,NA,0,0,0,NA,53,0,53,73.2296414732588,"Thu Dec  2 11:15:44 2021","The main experiment item","yes","red","no","0","circle",NA,"pinging_target_expectations 4.0.osexp","C:\Users\etp-cp-ping\Desktop\LocalPC-EXP",75,"no","mono","no",18,"no","white","no","yes",1050,NA,100,"psycho",53,0,53,"C:/Users/etp-cp-ping/Desktop/LocalPC-EXP/subject-10.csv","psycho",12,54,54,"Lentiform Loewenfeld","3.3.8","['hori', 'vert', 'hori', 'hori', 'vert', 'vert', 'hori', 'vert']","yes",109,"diamond","yes",0,NA,2,"legacy",NA,1024,2,48000,-16,"experiment",10,"even","green","no",5,"diamond",453405.0796,453428.0876,453428.1284,NA,460349.0859,NA,NA,97665.0312000002,1368.05639999966,NA,97665.0552999999,611868.7237,615262,NA,NA,NA,NA,1368.1330999998,460657.5693,NA,NA,611868.7382,460998.5461,611868.6746,"New experiment",19,"[0]","dist_present",56,61,"yes","yes",1680,NA,NA,NA,NA,"R","R","lp",NA,"Right",NA,NA,NA,NA,"practice",5,"NR","in"
"55",1025.38490000006,51147.0636999995,51147.0636999995,37,37,"n",6,"['2', '4', 'space']","n","#000000","no",609240.0078,1,"neutral","psycho","psycho","psycho",0,"uniform",1,0,0,0,NA,0,0,NA,0,0,0,0,54,54,NA,NA,NA,NA,0,0,0,NA,54,0,54,73.2296414732588,"Thu Dec  2 11:15:44 2021","The main experiment item","yes","green","no","2","circle",NA,"pinging_target_expectations 4.0.osexp","C:\Users\etp-cp-ping\Desktop\LocalPC-EXP",75,"no","mono","no",18,"no","white","no","yes",1050,NA,100,"psycho",54,0,54,"C:/Users/etp-cp-ping/Desktop/LocalPC-EXP/subject-10.csv","psycho",12,55,55,"Lentiform Loewenfeld","3.3.8","['vert', 'hori', 'vert', 'vert', 'vert', 'hori', 'hori', 'hori']","no",209,"None","yes",0,NA,2,"legacy",NA,1024,2,48000,-16,"experiment",10,"even","red","no",0,"diamond",453405.0796,453428.0876,453428.1284,NA,460349.0859,NA,NA,97665.0312000002,1368.05639999966,NA,97665.0552999999,615292.3396,618141.9774,NA,NA,NA,NA,1368.1330999998,460657.5693,NA,NA,615292.354,460998.5461,615292.29,"New experiment",19,"[0]","dist_present",56,13,"yes","yes",1680,NA,NA,NA,NA,"NR","NR","lp","Left",NA,"Left",NA,NA,NA,"practice",5,"R","in"
"56",733.016599999275,51880.0802999987,51880.0802999987,38,38,"n",6,"['2', '4', 'space']","n","#000000","no",609240.0078,1,"neutral","psycho","psycho","psycho",0,"uniform",1,0,0,0,NA,0,0,NA,0,0,0,0,55,55,NA,NA,NA,NA,0,0,0,NA,55,0,55,73.2296414732588,"Thu Dec  2 11:15:44 2021","The main experiment item","yes","red","no","3","circle",NA,"pinging_target_expectations 4.0.osexp","C:\Users\etp-cp-ping\Desktop\LocalPC-EXP",75,"no","mono","no",18,"no","white","no","yes",1050,NA,100,"psycho",55,0,55,"C:/Users/etp-cp-ping/Desktop/LocalPC-EXP/subject-10.csv","psycho",12,56,56,"Lentiform Loewenfeld","3.3.8","['hori', 'vert', 'vert', 'vert', 'hori', 'hori', 'vert', 'hori']","no",209,"None","yes",0,NA,2,"legacy",NA,1024,2,48000,-16,"experiment",10,"even","green","no",0,"diamond",453405.0796,453428.0876,453428.1284,NA,460349.0859,NA,NA,97665.0312000002,1368.05639999966,NA,97665.0552999999,618172.3405,620973.9795,NA,NA,NA,NA,1368.1330999998,460657.5693,NA,NA,618172.3547,460998.5461,618172.2918,"New experiment",19,"[0]","dist_present",56,14,"yes","yes",1680,NA,NA,NA,NA,"R","NR","lp","Left",NA,NA,NA,NA,NA,"practice",0,"NR","in"
"57",894.26900000032,894.26900000032,52774.3492999991,1,39,"n",6,"['2', '4', 'space']","n","#000000","no",609240.0078,2,"bias","psycho","psycho","psycho",0,"uniform",1,0,1,1,NA,1,0,NA,0,0,1,0,56,56,NA,NA,NA,NA,0,1,1,NA,56,1,56,73.2296414732588,"Thu Dec  2 11:15:44 2021","The main experiment item","yes","green","no","5","diamond",NA,"pinging_target_expectations 4.0.osexp","C:\Users\etp-cp-ping\Desktop\LocalPC-EXP",75,"no","mono","no",18,"no","white","no","yes",1050,NA,2,"psycho",0,1,0,"C:/Users/etp-cp-ping/Desktop/LocalPC-EXP/subject-10.csv","psycho",0,57,1,"Lentiform Loewenfeld","3.3.8","['vert', 'vert', 'hori', 'vert', 'vert', 'hori', 'hori', 'hori']","no",202,"None","no",0,NA,2,"legacy",NA,1024,2,48000,-16,"experiment",10,"even","red","yes",2,"circle",453405.0796,662660.8832,662661.0185,NA,702625.945199999,NA,NA,97665.0312000002,1368.05639999966,621510.045,97665.0552999999,704086.8972,706781.8665,NA,NA,NA,NA,1368.1330999998,703555.0736,621003.8059,NA,704086.9125,704082.5991,704086.8545,"New experiment",19,"[0]","dist_present",56,36,"yes","yes",1680,-3.84454364278486,-6.79130001261379,"more away","False","NR","NR","lp",NA,NA,NA,NA,0,-3,"first",999,"R","in"
"58",668.452500000014,1562.72150000033,53442.8017999991,2,40,"n",6,"['2', '4', 'space']","n","#000000","no",609240.0078,2,"bias","psycho","psycho","psycho",0,"uniform",1,0,1,1,NA,1,0,NA,0,0,1,0,57,57,NA,NA,NA,NA,0,1,1,NA,57,1,57,73.2296414732588,"Thu Dec  2 11:15:44 2021","The main experiment item","yes","green","no","0","circle",NA,"pinging_target_expectations 4.0.osexp","C:\Users\etp-cp-ping\Desktop\LocalPC-EXP",75,"no","mono","no",18,"no","white","no","yes",1050,NA,2,"psycho",1,1,1,"C:/Users/etp-cp-ping/Desktop/LocalPC-EXP/subject-10.csv","psycho",0,58,2,"Lentiform Loewenfeld","3.3.8","['vert', 'vert', 'hori', 'vert', 'hori', 'hori', 'vert', 'hori']","yes",102,"diamond","no",0,NA,2,"legacy",NA,1024,2,48000,-16,"experiment",10,"even","red","no",4,"diamond",453405.0796,662660.8832,662661.0185,NA,702625.945199999,NA,NA,97665.0312000002,1368.05639999966,621510.045,97665.0552999999,706813.5068,709485.8371,NA,NA,NA,NA,1368.1330999998,703555.0736,621003.8059,NA,706813.5209,704082.5991,706813.4605,"New experiment",19,"[0]","dist_present",56,51,"yes","yes",1680,-17.8212936427847,0.155887487386296,"more away","False","NR","NR","hp",NA,NA,NA,NA,-2,2,"first",2,"NR","in"
"59",853.629600000218,2416.35110000055,54296.4313999993,3,41,"n",6,"['2', '4', 'space']","n","#000000","no",709942.9635,2,"bias","psycho","psycho","psycho",0,"uniform",1,0,1,1,NA,1,0,NA,0,0,1,0,58,58,NA,NA,NA,NA,0,1,1,NA,58,1,58,73.2296414732588,"Thu Dec  2 11:15:44 2021","The main experiment item","yes","red","no","1","circle",NA,"pinging_target_expectations 4.0.osexp","C:\Users\etp-cp-ping\Desktop\LocalPC-EXP",75,"no","mono","no",18,"no","white","no","yes",1050,NA,2,"psycho",2,1,2,"C:/Users/etp-cp-ping/Desktop/LocalPC-EXP/subject-10.csv","psycho",1,59,3,"Lentiform Loewenfeld","3.3.8","['vert', 'vert', 'vert', 'hori', 'hori', 'hori', 'vert', 'hori']","no",202,"None","no",0,NA,2,"legacy",NA,1024,2,48000,-16,"experiment",10,"even","green","yes",2,"diamond",453405.0796,662660.8832,662661.0185,NA,702625.945199999,NA,NA,97665.0312000002,1368.05639999966,621510.045,97665.0552999999,709516.4106,712205.9025,NA,NA,NA,NA,1368.1330999998,703555.0736,621003.8059,NA,709516.425,704082.5991,709516.3635,"New experiment",19,"[0]","dist_present",56,32,"yes","no",1680,-26.198168642785,6.53394998738623,"more away","False","NR","NR","lp",NA,NA,NA,NA,0,1,"first",4,"NR","ex"
"60",537.214399999357,2953.56549999991,54833.6457999987,4,42,"n",6,"['2', '4', 'space']","n","#000000","no",709942.9635,2,"bias","psycho","psycho","psycho",0,"uniform",1,0,1,1,NA,1,0,NA,0,0,1,0,59,59,NA,NA,NA,NA,0,1,1,NA,59,1,59,73.2296414732588,"Thu Dec  2 11:15:44 2021","The main experiment item","yes","red","no","None","circle",NA,"pinging_target_expectations 4.0.osexp","C:\Users\etp-cp-ping\Desktop\LocalPC-EXP",75,"no","mono","no",18,"no","white","no","yes",1050,NA,2,"psycho",3,1,3,"C:/Users/etp-cp-ping/Desktop/LocalPC-EXP/subject-10.csv","psycho",1,60,4,"Lentiform Loewenfeld","3.3.8","['vert', 'vert', 'vert', 'hori', 'hori', 'vert', 'hori', 'hori']","yes",102,"diamond","no",0,NA,2,"legacy",NA,1024,2,48000,-16,"experiment",10,"even","green","no",4,"diamond",453405.0796,662660.8832,662661.0185,NA,702625.945199999,NA,NA,97665.0312000002,1368.05639999966,621510.045,97665.0552999999,712236.5762,714861.812999999,NA,NA,NA,NA,1368.1330999998,703555.0736,621003.8059,NA,712236.5905,704082.5991,712236.5269,"New experiment",19,"[0]","dist_absent",56,59,"yes","yes",1680,-12.0909186427848,-0.0992375126137517,"more away","False","NR","NR","hp",NA,NA,NA,NA,-2,NA,"first",2,"NR","in"
"61",650.596400000737,3604.16190000065,55484.2421999994,4,42,"n",6,"['2', '4', 'space']","n","#000000","no",709942.9635,2,"bias","psycho","psycho","psycho",0,"uniform",0,0,1,1,NA,1,0,NA,0,0,1,0,60,60,NA,NA,NA,NA,0,1,1,NA,60,1,60,73.2296414732588,"Thu Dec  2 11:15:44 2021","The main experiment item","yes","green","no","3","diamond",NA,"pinging_target_expectations 4.0.osexp","C:\Users\etp-cp-ping\Desktop\LocalPC-EXP",75,"no","mono","no",18,"no","white","no","yes",1050,NA,2,"psycho",4,1,4,"C:/Users/etp-cp-ping/Desktop/LocalPC-EXP/subject-10.csv","psycho",1,61,5,"Lentiform Loewenfeld","3.3.8","['hori', 'vert', 'vert', 'hori', 'hori', 'vert', 'vert', 'hori']","yes",102,"circles","no",0,NA,2,"legacy",NA,1024,2,48000,-16,"experiment",10,"even","red","yes",2,"circle",453405.0796,662660.8832,662661.0185,NA,702625.945199999,NA,NA,97665.0312000002,1368.05639999966,621510.045,97665.0552999999,714892.4086,717453.893899999,NA,NA,NA,NA,1368.1330999998,703555.0736,621003.8059,NA,714892.4233,704082.5991,714892.3603,"New experiment",19,"[0]","dist_present",56,34,"yes","yes",1680,-5.41335614278491,5.39513748738617,"more away","False","NR","NR","lp",NA,NA,NA,NA,0,-1,"first",4,"NR","ex"
"62",563.620199999656,4167.7821000003,56047.8623999991,5,43,"n",6,"['2', '4', 'space']","n","#000000","no",709942.9635,2,"bias","psycho","psycho","psycho",0,"uniform",1,0,1,1,NA,1,0,NA,0,0,1,0,61,61,NA,NA,NA,NA,0,1,1,NA,61,1,61,73.2296414732588,"Thu Dec  2 11:15:44 2021","The main experiment item","yes","green","no","4","diamond",NA,"pinging_target_expectations 4.0.osexp","C:\Users\etp-cp-ping\Desktop\LocalPC-EXP",75,"no","mono","no",18,"no","white","no","yes",1050,NA,2,"psycho",5,1,5,"C:/Users/etp-cp-ping/Desktop/LocalPC-EXP/subject-10.csv","psycho",1,62,6,"Lentiform Loewenfeld","3.3.8","['vert', 'hori', 'hori', 'vert', 'vert', 'hori', 'hori', 'vert']","yes",102,"diamond","no",0,NA,2,"legacy",NA,1024,2,48000,-16,"experiment",10,"even","red","yes",2,"circle",453405.0796,662660.8832,662661.0185,NA,702625.945199999,NA,NA,97665.0312000002,1368.05639999966,621510.045,97665.0552999999,717485.9871,719821.981999999,NA,NA,NA,NA,1368.1330999998,703555.0736,621003.8059,NA,717486.0016,704082.5991,717485.9388,"New experiment",19,"[0]","dist_present",56,35,"yes","yes",1680,-13.5102936427848,-0.870050012613785,"more away","False","R","NR","hp",NA,"Left",NA,"Left",0,-2,"first",2,"NR","ex"
"63",693.324899999425,4861.10699999973,56741.1872999985,6,44,"n",6,"['2', '4', 'space']","n","#000000","no",720369.6694,2,"bias","psycho","psycho","psycho",0,"uniform",1,0,1,1,NA,1,0,NA,0,0,1,0,62,62,NA,NA,NA,NA,0,1,1,NA,62,1,62,73.2296414732588,"Thu Dec  2 11:15:44 2021","The main experiment item","yes","red","no","None","circle",NA,"pinging_target_expectations 4.0.osexp","C:\Users\etp-cp-ping\Desktop\LocalPC-EXP",75,"no","mono","no",18,"no","white","no","yes",1050,NA,2,"psycho",6,1,6,"C:/Users/etp-cp-ping/Desktop/LocalPC-EXP/subject-10.csv","psycho",2,63,7,"Lentiform Loewenfeld","3.3.8","['hori', 'hori', 'vert', 'hori', 'vert', 'vert', 'vert', 'hori']","no",202,"None","no",0,NA,2,"legacy",NA,1024,2,48000,-16,"experiment",10,"even","green","no",7,"diamond",453405.0796,662660.8832,662661.0185,NA,702625.945199999,NA,NA,97665.0312000002,1368.05639999966,621510.045,97665.0552999999,719852.8171,722365.9257,NA,NA,NA,NA,1368.1330999998,703555.0736,621003.8059,NA,719852.8313,704082.5991,719852.7684,"New experiment",19,"[0]","dist_absent",56,89,"yes","yes",1680,-0.80873114278496,3.43026248738622,"more away","False","NR","NR","hp",NA,"Right",NA,NA,3,NA,"first",2,"R","in"
"64",731.877100000042,5592.98409999977,57473.0643999985,7,45,"n",6,"['2', '4', 'space']","n","#000000","no",720369.6694,2,"bias","psycho","psycho","psycho",0,"uniform",1,0,1,1,NA,1,0,NA,0,0,1,0,63,63,NA,NA,NA,NA,0,1,1,NA,63,1,63,73.2296414732588,"Thu Dec  2 11:15:44 2021","The main experiment item","yes","green","no","1","diamond",NA,"pinging_target_expectations 4.0.osexp","C:\Users\etp-cp-ping\Desktop\LocalPC-EXP",75,"no","mono","no",18,"no","white","no","yes",1050,NA,2,"psycho",7,1,7,"C:/Users/etp-cp-ping/Desktop/LocalPC-EXP/subject-10.csv","psycho",2,64,8,"Lentiform Loewenfeld","3.3.8","['vert', 'hori', 'vert', 'hori', 'hori', 'vert', 'hori', 'vert']","yes",102,"circles","no",0,NA,2,"legacy",NA,1024,2,48000,-16,"experiment",10,"even","red","no",6,"circle",453405.0796,662660.8832,662661.0185,NA,702625.945199999,NA,NA,97665.0312000002,1368.05639999966,621510.045,97665.0552999999,722396.6632,725101.9274,NA,NA,NA,NA,1368.1330999998,703555.0736,621003.8059,NA,722396.6779,704082.5991,722396.615099999,"New experiment",19,"[0, 74.02501944220423, 74.66435699887785, 75.18703259609079, 79.48363559650164, 79.62725663992198, 80.86100247456837, 80.4747035418991, 79.79671572091763, 78.72896544474594, 81.66715161155642, 76.23154041410284, 75.73378578015459, 75.20117368391728]","dist_present",56,72,"yes","yes",1680,-4.50998114278482,-5.95911251261378,"more away","False","NR","NR","lp",NA,NA,NA,NA,4,1,"first",7,"NR","in"
"65",808.369400000665,6401.35350000043,58281.4337999992,8,46,"n",6,"['2', '4', 'space']","n","#000000","no",720369.6694,2,"bias","psycho","psycho","psycho",0,"uniform",1,0,1,1,NA,1,0,NA,0,0,1,0,64,64,NA,NA,NA,NA,0,1,1,NA,64,1,64,73.2296414732588,"Thu Dec  2 11:15:44 2021","The main experiment item","yes","green","no","7","diamond",NA,"pinging_target_expectations 4.0.osexp","C:\Users\etp-cp-ping\Desktop\LocalPC-EXP",75,"no","mono","no",18,"no","white","no","yes",1050,NA,2,"psycho",8,1,8,"C:/Users/etp-cp-ping/Desktop/LocalPC-EXP/subject-10.csv","psycho",2,65,9,"Lentiform Loewenfeld","3.3.8","['vert', 'vert', 'hori', 'hori', 'hori', 'hori', 'vert', 'vert']","yes",102,"circles","no",0,NA,2,"legacy",NA,1024,2,48000,-16,"experiment",10,"even","red","no",6,"circle",453405.0796,662660.8832,662661.0185,NA,702625.945199999,NA,NA,97665.0312000002,1368.05639999966,621510.045,97665.0552999999,725132.6785,727869.953599999,NA,NA,NA,NA,1368.1330999998,703555.0736,621003.8059,NA,725132.6927,704082.5991,725132.6295,"New experiment",19,"[0]","dist_present",56,78,"yes","yes",1680,-3.94016864278486,1.94551248738623,"more away","False","R","NR","lp",NA,NA,NA,NA,4,3,"first",6,"NR","in"
"66",635.017399999895,7036.37090000033,58916.4511999991,9,47,"n",6,"['2', '4', 'space']","n","#000000","no",720369.6694,2,"bias","psycho","psycho","psycho",0,"uniform",1,0,1,1,NA,1,0,NA,0,0,1,0,65,65,NA,NA,NA,NA,0,1,1,NA,65,1,65,73.2296414732588,"Thu Dec  2 11:15:44 2021","The main experiment item","yes","green","no","0","circle",NA,"pinging_target_expectations 4.0.osexp","C:\Users\etp-cp-ping\Desktop\LocalPC-EXP",75,"no","mono","no",18,"no","white","no","yes",1050,NA,2,"psycho",9,1,9,"C:/Users/etp-cp-ping/Desktop/LocalPC-EXP/subject-10.csv","psycho",2,66,10,"Lentiform Loewenfeld","3.3.8","['vert', 'vert', 'vert', 'hori', 'hori', 'hori', 'hori', 'vert']","no",202,"None","no",0,NA,2,"legacy",NA,1024,2,48000,-16,"experiment",10,"even","red","no",5,"diamond",453405.0796,662660.8832,662661.0185,NA,702625.945199999,NA,NA,97665.0312000002,1368.05639999966,621510.045,97665.0552999999,727900.7307,730461.8464,NA,NA,NA,NA,1368.1330999998,703555.0736,621003.8059,NA,727900.7449,704082.5991,727900.6801,"New experiment",19,"[0]","dist_present",56,61,"yes","yes",1680,-16.716231142785,-3.83798751261376,"more away","False","NR","NR","lp",NA,"Right",NA,NA,-3,2,"first",6,"R","in"
"67",978.853000000585,8015.22390000091,59895.3041999997,10,48,"n",6,"['2', '4', 'space']","n","#000000","no",731728.8842,2,"bias","psycho","psycho","psycho",0,"uniform",1,0,1,1,NA,1,0,NA,0,0,1,0,66,66,NA,NA,NA,NA,0,1,1,NA,66,1,66,73.2296414732588,"Thu Dec  2 11:15:44 2021","The main experiment item","yes","red","no","0","diamond",NA,"pinging_target_expectations 4.0.osexp","C:\Users\etp-cp-ping\Desktop\LocalPC-EXP",75,"no","mono","no",18,"no","white","no","yes",1050,NA,2,"psycho",10,1,10,"C:/Users/etp-cp-ping/Desktop/LocalPC-EXP/subject-10.csv","psycho",3,67,11,"Lentiform Loewenfeld","3.3.8","['vert', 'hori', 'vert', 'hori', 'hori', 'vert', 'hori', 'vert']","yes",102,"diamond","no",0,NA,2,"legacy",NA,1024,2,48000,-16,"experiment",10,"even","green","yes",2,"circle",453405.0796,662660.8832,662661.0185,NA,702625.945199999,NA,NA,97665.0312000002,1368.05639999966,621510.045,97665.0552999999,730493.9358,733373.9409,NA,NA,NA,NA,1368.1330999998,703555.0736,621003.8059,NA,730493.9503,704082.5991,730493.8874,"New experiment",19,"[0, 74.36886622882223, 75.09440291636832, 73.93579706341907, 74.32105679848216, 76.11841784454565, 76.21156706237123, 76.56222796508573, 75.49337719296972, 74.0309027073509, 74.31623540141835]","dist_present",56,31,"yes","yes",1680,NA,NA,"no hp","True","NR","R","lp",NA,"Left",NA,"Left",0,2,"first",5,"NR","ex"
"68",737.60269999993,8752.82660000084,60632.9068999996,11,49,"n",6,"['2', '4', 'space']","n","#000000","no",731728.8842,2,"bias","psycho","psycho","psycho",0,"uniform",1,0,1,1,NA,1,0,NA,0,0,1,0,67,67,NA,NA,NA,NA,0,1,1,NA,67,1,67,73.2296414732588,"Thu Dec  2 11:15:44 2021","The main experiment item","yes","red","no","3","diamond",NA,"pinging_target_expectations 4.0.osexp","C:\Users\etp-cp-ping\Desktop\LocalPC-EXP",75,"no","mono","no",18,"no","white","no","yes",1050,NA,2,"psycho",11,1,11,"C:/Users/etp-cp-ping/Desktop/LocalPC-EXP/subject-10.csv","psycho",3,68,12,"Lentiform Loewenfeld","3.3.8","['hori', 'hori', 'hori', 'hori', 'vert', 'vert', 'vert', 'vert']","no",202,"None","no",0,NA,2,"legacy",NA,1024,2,48000,-16,"experiment",10,"even","green","no",6,"circle",453405.0796,662660.8832,662661.0185,NA,702625.945199999,NA,NA,97665.0312000002,1368.05639999966,621510.045,97665.0552999999,733404.8068,736109.9011,NA,NA,NA,NA,1368.1330999998,703555.0736,621003.8059,NA,733404.8209,704082.5991,733404.759,"New experiment",19,"[0]","dist_present",56,74,"yes","yes",1680,7.61183135721512,-5.00598751261386,"more toward","False","NR","NR","hp",NA,NA,NA,NA,4,-1,"first",2,"NR","in"
"69",578.740799999679,9331.56740000052,61211.6476999993,12,50,"n",6,"['2', '4', 'space']","n","#000000","no",731728.8842,2,"bias","psycho","psycho","psycho",0,"uniform",1,0,1,1,NA,1,0,NA,0,0,1,0,68,68,NA,NA,NA,NA,0,1,1,NA,68,1,68,73.2296414732588,"Thu Dec  2 11:15:44 2021","The main experiment item","yes","green","yes","2","diamond",NA,"pinging_target_expectations 4.0.osexp","C:\Users\etp-cp-ping\Desktop\LocalPC-EXP",75,"no","mono","no",18,"no","white","no","yes",1050,NA,2,"psycho",12,1,12,"C:/Users/etp-cp-ping/Desktop/LocalPC-EXP/subject-10.csv","psycho",3,69,13,"Lentiform Loewenfeld","3.3.8","['vert', 'hori', 'vert', 'hori', 'hori', 'vert', 'vert', 'hori']","yes",102,"diamond","no",0,NA,2,"legacy",NA,1024,2,48000,-16,"experiment",10,"even","red","no",6,"circle",453405.0796,662660.8832,662661.0185,NA,702625.945199999,NA,NA,97665.0312000002,1368.05639999966,621510.045,97665.0552999999,736140.5601,738573.7915,NA,NA,NA,NA,1368.1330999998,703555.0736,621003.8059,NA,736140.5745,704082.5991,736140.511099999,"New experiment",19,"[0]","dist_present",56,73,"yes","yes",1680,0.378581357215151,11.5410124873862,"more away","False","R","NR","lp",NA,NA,NA,NA,4,0,"first",6,"NR","in"
"70",743.006300000125,10074.5737000006,61954.6539999994,13,51,"n",6,"['2', '4', 'space']","n","#000000","no",731728.8842,2,"bias","psycho","psycho","psycho",0,"uniform",1,0,1,1,NA,1,0,NA,0,0,1,0,69,69,NA,NA,NA,NA,0,1,1,NA,69,1,69,73.2296414732588,"Thu Dec  2 11:15:44 2021","The main experiment item","yes","red","no","None","circle",NA,"pinging_target_expectations 4.0.osexp","C:\Users\etp-cp-ping\Desktop\LocalPC-EXP",75,"no","mono","no",18,"no","white","no","yes",1050,NA,2,"psycho",13,1,13,"C:/Users/etp-cp-ping/Desktop/LocalPC-EXP/subject-10.csv","psycho",3,70,14,"Lentiform Loewenfeld","3.3.8","['vert', 'hori', 'hori', 'vert', 'vert', 'hori', 'vert', 'hori']","no",202,"None","no",0,NA,2,"legacy",NA,1024,2,48000,-16,"experiment",10,"even","green","no",7,"diamond",453405.0796,662660.8832,662661.0185,NA,702625.945199999,NA,NA,97665.0312000002,1368.05639999966,621510.045,97665.0552999999,738604.3454,741293.8547,NA,NA,NA,NA,1368.1330999998,703555.0736,621003.8059,NA,738604.36,704082.5991,738604.2955,"New experiment",19,"[0]","dist_absent",56,89,"yes","yes",1680,-1.75998114278483,-1.57511251261377,"more away","False","NR","NR","lp",NA,"Right",NA,NA,3,NA,"first",6,"R","in"
"71",676.185399999726,10750.7591000004,62630.8393999991,14,52,"n",6,"['2', '4', 'space']","n","#000000","no",731728.8842,2,"bias","psycho","psycho","psycho",0,"uniform",1,0,1,1,NA,1,0,NA,0,0,1,0,70,70,NA,NA,NA,NA,0,1,1,NA,70,1,70,73.2296414732588,"Thu Dec  2 11:15:44 2021","The main experiment item","yes","red","no","None","circle",NA,"pinging_target_expectations 4.0.osexp","C:\Users\etp-cp-ping\Desktop\LocalPC-EXP",75,"no","mono","no",18,"no","white","no","yes",1050,NA,2,"psycho",14,1,14,"C:/Users/etp-cp-ping/Desktop/LocalPC-EXP/subject-10.csv","psycho",3,71,15,"Lentiform Loewenfeld","3.3.8","['vert', 'hori', 'vert', 'vert', 'hori', 'vert', 'hori', 'hori']","no",202,"None","no",0,NA,2,"legacy",NA,1024,2,48000,-16,"experiment",10,"even","green","no",1,"diamond",453405.0796,662660.8832,662661.0185,NA,702625.945199999,NA,NA,97665.0312000002,1368.05639999966,621510.045,97665.0552999999,741324.585,743886.0268,NA,NA,NA,NA,1368.1330999998,703555.0736,621003.8059,NA,741324.5994,704082.5991,741324.5364,"New experiment",19,"[0]","dist_absent",56,29,"yes","yes",1680,-3.22560614278501,13.1110749873862,"more away","False","NR","R","lp",NA,"Left",NA,NA,1,NA,"first",7,"NR","in"
"72",590.289400000125,11341.0485000005,63221.1287999992,15,53,"n",6,"['2', '4', 'space']","n","#000000","no",731728.8842,2,"bias","psycho","psycho","psycho",0,"uniform",1,0,1,1,NA,1,0,NA,0,0,1,0,71,71,NA,NA,NA,NA,0,1,1,NA,71,1,71,73.2296414732588,"Thu Dec  2 11:15:44 2021","The main experiment item","yes","red","no","5","circle",NA,"pinging_target_expectations 4.0.osexp","C:\Users\etp-cp-ping\Desktop\LocalPC-EXP",75,"no","mono","no",18,"no","white","no","yes",1050,NA,2,"psycho",15,1,15,"C:/Users/etp-cp-ping/Desktop/LocalPC-EXP/subject-10.csv","psycho",3,72,16,"Lentiform Loewenfeld","3.3.8","['vert', 'hori', 'hori', 'vert', 'vert', 'hori', 'hori', 'vert']","no",202,"None","no",0,NA,2,"legacy",NA,1024,2,48000,-16,"experiment",10,"even","green","yes",2,"diamond",453405.0796,662660.8832,662661.0185,NA,702625.945199999,NA,NA,97665.0312000002,1368.05639999966,621510.045,97665.0552999999,743918.571,746557.8475,NA,NA,NA,NA,1368.1330999998,703555.0736,621003.8059,NA,743918.5854,704082.5991,743918.521699999,"New experiment",19,"[0]","dist_present",56,36,"yes","yes",1680,0.09733135721514,-2.76573751261377,"more away","False","NR","NR","lp",NA,NA,NA,NA,0,-3,"first",1,"NR","ex"
"73",599.192300000112,11940.2408000006,63820.3210999994,15,53,"n",6,"['2', '4', 'space']","n","#000000","no",731728.8842,2,"bias","psycho","psycho","psycho",0,"uniform",0,0,1,1,NA,1,0,NA,0,0,1,0,72,72,NA,NA,NA,NA,0,1,1,NA,72,1,72,73.2296414732588,"Thu Dec  2 11:15:44 2021","The main experiment item","yes","red","no","3","diamond",NA,"pinging_target_expectations 4.0.osexp","C:\Users\etp-cp-ping\Desktop\LocalPC-EXP",75,"no","mono","no",18,"no","white","no","yes",1050,NA,2,"psycho",16,1,16,"C:/Users/etp-cp-ping/Desktop/LocalPC-EXP/subject-10.csv","psycho",3,73,17,"Lentiform Loewenfeld","3.3.8","['hori', 'vert', 'vert', 'hori', 'vert', 'vert', 'hori', 'hori']","no",202,"None","no",0,NA,2,"legacy",NA,1024,2,48000,-16,"experiment",10,"even","green","no",1,"circle",453405.0796,662660.8832,662661.0185,NA,702625.945199999,NA,NA,97665.0312000002,1368.05639999966,621510.045,97665.0552999999,746588.3696,749037.827399999,NA,NA,NA,NA,1368.1330999998,703555.0736,621003.8059,NA,746588.3853,704082.5991,746588.3139,"New experiment",19,"[0, 81.66715161155642, 81.56744260347898, 81.55941401908714, 81.56744260347898, 81.0690921688338, 81.0610142259761, 81.65913283038199, 82.3117019584583, 81.35380742425043, 81.38455550056277, 83.17844601720257, 84.1486779456457, 84.22119508858226, 84.1370303897912, 81.94069737158993, 81.02056619153184, 80.89478599618383, 81.58340743168802, 81.68291376340373, 81.63580174149885, 83.53040235552609, 83.50867173171464, 83.58118252493333, 83.86009537142392, 82.61098178526042, 82.57677813471877, 82.77630234837711, 82.782884503969, 82.68313008105099, 82.7572698786918, 82.6574845430053, 82.63951768259933, 83.28631542405186, 82.0739189176696, 81.87457590241286, 82.09075462333779, 82.20004627384719, 82.20996413528775, 82.3195225714257, 82.12053209759716, 82.00793649367093, 82.29823813423954, 82.6884173288663, 82.53243222009641, 82.51473918408448, 81.61818541794634, 81.70249457409273, 79.77251447047504, 79.13739885761673, 78.24131661397976, 75.05585683681261, 74.55822112552472]","dist_present",56,24,"yes","yes",1680,1.80770635721519,-5.11423751261376,"more toward","False","NR","NR","hp",NA,NA,NA,NA,1,-1,"first",2,"NR","in"
"74",576.888499999768,12517.1293000004,64397.2095999991,15,53,"n",6,"['2', '4', 'space']","n","#000000","no",731728.8842,2,"bias","psycho","psycho","psycho",0,"uniform",0,0,1,1,NA,1,0,NA,0,0,1,0,73,73,NA,NA,NA,NA,0,1,1,NA,73,1,73,73.2296414732588,"Thu Dec  2 11:15:44 2021","The main experiment item","yes","green","no","6","diamond",NA,"pinging_target_expectations 4.0.osexp","C:\Users\etp-cp-ping\Desktop\LocalPC-EXP",75,"no","mono","no",18,"no","white","no","yes",1050,NA,2,"psycho",17,1,17,"C:/Users/etp-cp-ping/Desktop/LocalPC-EXP/subject-10.csv","psycho",3,74,18,"Lentiform Loewenfeld","3.3.8","['hori', 'vert', 'hori', 'hori', 'vert', 'hori', 'vert', 'vert']","yes",102,"diamond","no",0,NA,2,"legacy",NA,1024,2,48000,-16,"experiment",10,"even","red","no",0,"circle",453405.0796,662660.8832,662661.0185,NA,702625.945199999,NA,NA,97665.0312000002,1368.05639999966,621510.045,97665.0552999999,749068.4237,751645.775,NA,NA,NA,NA,1368.1330999998,703555.0736,621003.8059,NA,749068.437899999,704082.5991,749068.3761,"New experiment",19,"[0]","dist_present",56,17,"yes","yes",1680,-1.89473114278489,-9.48411251261378,"more away","False","NR","NR","lp","Right",NA,"Right",NA,2,4,"first",1,"NR","in"
"75",716.745899999281,13233.8751999997,65113.9554999984,15,53,"n",6,"['2', '4', 'space']","n","#000000","no",731728.8842,2,"bias","psycho","psycho","psycho",0,"uniform",0,0,1,1,NA,1,0,NA,0,0,1,0,74,74,NA,NA,NA,NA,0,1,1,NA,74,1,74,73.2296414732588,"Thu Dec  2 11:15:44 2021","The main experiment item","yes","green","yes","2","circle",NA,"pinging_target_expectations 4.0.osexp","C:\Users\etp-cp-ping\Desktop\LocalPC-EXP",75,"no","mono","no",18,"no","white","no","yes",1050,NA,2,"psycho",18,1,18,"C:/Users/etp-cp-ping/Desktop/LocalPC-EXP/subject-10.csv","psycho",3,75,19,"Lentiform Loewenfeld","3.3.8","['hori', 'hori', 'hori', 'vert', 'hori', 'vert', 'vert', 'vert']","yes",102,"circles","no",0,NA,2,"legacy",NA,1024,2,48000,-16,"experiment",10,"even","red","no",3,"diamond",453405.0796,662660.8832,662661.0185,NA,702625.945199999,NA,NA,97665.0312000002,1368.05639999966,621510.045,97665.0552999999,751676.6358,754221.8207,NA,NA,NA,NA,1368.1330999998,703555.0736,621003.8059,NA,751676.65,704082.5991,751676.5875,"New experiment",19,"[0, 76.3848673588331, 83.55581262391851, 89.05787001397758, 99.4688641930147, 103.17298592371289, 107.868041490523, 110.18474279112154, 114.38688936667948, 121.24201193887194, 126.94110284422985, 132.33427545040993, 136.37141538669863, 139.19129564102477, 139.42970773274126, 140.86888708003877, 143.765654191801, 147.3434545331083, 148.0257643919778, 152.20674332106015, 151.51886810750244, 151.544204396708, 152.1908237252582, 152.6368809999957, 152.27816726178946, 151.9848133089711, 151.9108083831214, 149.30911929775067, 149.19644006977305, 148.13789654103272, 146.62120128084942, 148.80356178532824, 148.94963240359073, 149.26978016500328, 148.192128652738, 147.78663750356296, 148.40235011458543, 148.1786225709109, 147.9170695288695, 150.79953580830414, 149.26712993523344, 147.18411259952487, 148.0472991748561]","dist_present",56,43,"yes","yes",1680,0.658956357215189,-3.89148751261374,"more toward","False","NR","NR","lp",NA,NA,NA,NA,-1,0,"first",0,"NR","in"
"76",796.59940000053,14030.4746000002,65910.5548999989,16,54,"n",6,"['2', '4', 'space']","n","#000000","no",731728.8842,2,"bias","psycho","psycho","psycho",0,"uniform",1,0,1,1,NA,1,0,NA,0,0,1,0,75,75,NA,NA,NA,NA,0,1,1,NA,75,1,75,73.2296414732588,"Thu Dec  2 11:15:44 2021","The main experiment item","yes","green","no","7","circle",NA,"pinging_target_expectations 4.0.osexp","C:\Users\etp-cp-ping\Desktop\LocalPC-EXP",75,"no","mono","no",18,"no","white","no","yes",1050,NA,2,"psycho",19,1,19,"C:/Users/etp-cp-ping/Desktop/LocalPC-EXP/subject-10.csv","psycho",3,76,20,"Lentiform Loewenfeld","3.3.8","['hori', 'vert', 'vert', 'hori', 'vert', 'hori', 'hori', 'vert']","yes",102,"circles","no",0,NA,2,"legacy",NA,1024,2,48000,-16,"experiment",10,"even","red","no",6,"diamond",453405.0796,662660.8832,662661.0185,NA,702625.945199999,NA,NA,97665.0312000002,1368.05639999966,621510.045,97665.0552999999,754252.3597,757037.7763,NA,NA,NA,NA,1368.1330999998,703555.0736,621003.8059,NA,754252.3742,704082.5991,754252.3101,"New experiment",19,"[0]","dist_present",56,78,"yes","yes",1680,-3.97435614278484,3.93513748738618,"more away","False","NR","NR","lp",NA,NA,NA,NA,4,3,"first",3,"NR","in"
"77",1475.49780000013,15505.9724000003,67386.0526999991,17,55,"n",6,"['2', '4', 'space']","n","#000000","no",757404.3615,2,"bias","psycho","psycho","psycho",0,"uniform",1,0,1,1,NA,1,0,NA,0,0,1,0,76,76,NA,NA,NA,NA,0,1,1,NA,76,1,76,73.2296414732588,"Thu Dec  2 11:15:44 2021","The main experiment item","yes","red","no","None","diamond",NA,"pinging_target_expectations 4.0.osexp","C:\Users\etp-cp-ping\Desktop\LocalPC-EXP",75,"no","mono","no",18,"no","white","no","yes",1050,NA,2,"psycho",20,1,20,"C:/Users/etp-cp-ping/Desktop/LocalPC-EXP/subject-10.csv","psycho",4,77,21,"Lentiform Loewenfeld","3.3.8","['hori', 'vert', 'vert', 'vert', 'hori', 'vert', 'hori', 'hori']","yes",102,"circles","no",0,NA,2,"legacy",NA,1024,2,48000,-16,"experiment",10,"even","green","no",5,"circle",453405.0796,662660.8832,662661.0185,NA,702625.945199999,NA,NA,97665.0312000002,1368.05639999966,621510.045,97665.0552999999,757068.5903,760333.8555,NA,NA,NA,NA,1368.1330999998,703555.0736,621003.8059,NA,757068.6053,704082.5991,757068.5408,"New experiment",19,"[0]","dist_absent",56,69,"yes","yes",1680,8.39808135721526,10.3260124873862,"more toward","False","NR","NR","lp",NA,"Right",NA,NA,-3,NA,"first",6,"NR","in"
"78",1080.72579999955,16586.6981999999,68466.7784999986,17,55,"n",6,"['2', '4', 'space']","n","#000000","no",757404.3615,2,"bias","psycho","psycho","psycho",0,"uniform",0,0,1,1,NA,1,0,NA,0,0,1,0,77,77,NA,NA,NA,NA,0,1,1,NA,77,1,77,73.2296414732588,"Thu Dec  2 11:15:44 2021","The main experiment item","yes","red","no","4","diamond",NA,"pinging_target_expectations 4.0.osexp","C:\Users\etp-cp-ping\Desktop\LocalPC-EXP",75,"no","mono","no",18,"no","white","no","yes",1050,NA,2,"psycho",21,1,21,"C:/Users/etp-cp-ping/Desktop/LocalPC-EXP/subject-10.csv","psycho",4,78,22,"Lentiform Loewenfeld","3.3.8","['hori', 'hori', 'hori', 'vert', 'vert', 'hori', 'vert', 'vert']","yes",102,"diamond","no",0,NA,2,"legacy",NA,1024,2,48000,-16,"experiment",10,"even","green","no",7,"circle",453405.0796,662660.8832,662661.0185,NA,702625.945199999,NA,NA,97665.0312000002,1368.05639999966,621510.045,97665.0552999999,760365.5019,763309.8629,NA,NA,NA,NA,1368.1330999998,703555.0736,621003.8059,NA,760365.516199999,704082.5991,760365.4545,"New experiment",19,"[0]","dist_present",56,85,"yes","yes",1680,5.62589385721526,-4.41148751261375,"more toward","False","NR","NR","lp",NA,"Right",NA,NA,3,-2,"first",5,"NR","in"
