"","RT","RT_bl","RT_tot","acc_bl","acc_tot","answer_debrief_1","answer_debrief_2","answer_debrief_3","answer_debrief_4","background","bidi","blink_onset","block_cnt","block_type","canvas_backend","clock_backend","color_backend","compensation","coordinates","correct","count_block_loop","count_block_seq","count_block_settings","count_check_session","count_drift_correct","count_end_loop","count_end_seq","count_exp_settings","count_experiment","count_feedback","count_instructions","count_log_variables","count_logger","count_new_inline_script","count_new_pygaze_drift_correct","count_new_pygaze_start_recording","count_new_pygaze_stop_recording","count_pygaze","count_start_recording","count_stop_recording","count_test_location","count_trial","count_trial_loop","count_trial_seq","d_eye","datetime","description","disable_garbage_collection","dist_color","dist_high","dist_loc","dist_shape","empty_column","experiment_file","experiment_path","eye_threshold_length","font_bold","font_family","font_italic","font_size","font_underline","foreground","form_clicks","fullscreen","height","high_loc","high_prob_loc","keyboard_backend","live_row","live_row_block_loop","live_row_trial_loop","logfile","mouse_backend","nr_blinks","nr_trials","nr_trials_bl","opensesame_codename","opensesame_version","orient_list_trial","ping","ping_trigger","ping_type","practice","repeat_cycle","response","round_decimals","sampler_backend","session_nr","sound_buf_size","sound_channels","sound_freq","sound_sample_size","start","subject_nr","subject_parity","target_color","target_high","target_loc","target_shape","time_block_loop","time_block_seq","time_block_settings","time_check_session","time_drift_correct","time_end_loop","time_end_seq","time_exp_settings","time_experiment","time_feedback","time_instructions","time_log_variables","time_logger","time_new_inline_script","time_new_pygaze_drift_correct","time_new_pygaze_start_recording","time_new_pygaze_stop_recording","time_pygaze","time_start_recording","time_stop_recording","time_test_location","time_trial","time_trial_loop","time_trial_seq","title","total_blocks","tracker_dev","trial_type","trials_in_block","trigger","uniform_coordinates","update_blinks","width","x","y","toward","containsNaN","rept","repd","prevtar","pd","nt","pd_c","nt_c","tar_dist","dist_dist","prevHP","eegTar","repteeg","tarcounter"
"1",945.286999998672,945.286999998672,945.286999998672,1,1,"n",2,"['4', '8', '2', 'space']","y","#000000","no",1348.18110000015,1,"neutral","psycho","psycho","psycho",0,"uniform",1,0,0,0,NA,0,0,NA,0,0,0,0,0,0,NA,NA,NA,NA,0,0,0,NA,0,0,0,73.2296414732588,"Fri Oct 22 15:08:06 2021","The main experiment item","yes","red","no","None","circle",NA,"pinging_target_expectations 5.0.osexp","C:/Users/etp-cp-ping/Desktop/LocalPC-EXP",75,"no","mono","no",18,"no","white","no","yes",1050,NA,100,"psycho",0,0,0,"C:/Users/etp-cp-ping/Desktop/LocalPC-EXP/subject-6.csv","psycho",0,1,1,"Lentiform Loewenfeld","3.3.8","['hori', 'vert', 'hori', 'hori', 'vert', 'vert', 'hori', 'vert']","no",209,"None","yes",0,NA,2,"legacy",NA,1024,2,48000,-16,"experiment",6,"even","green","no",4,"diamond",327344.8838,327364.023999999,327364.065599999,NA,330144.8867,NA,NA,73204.1267999994,1353.01989999971,NA,73204.1497999999,331577.570699999,334194.023399999,NA,NA,NA,NA,1353.09869999946,331200.1929,NA,NA,331577.5861,331573.3091,331577.530999999,"New experiment",19,"[0]","dist_absent",56,59,"yes","yes",1680,NA,NA,NA,NA,"NR","NR","lp",NA,NA,NA,NA,NA,NA,"practice",999,"NR","in"
"2",1447.79360000032,2393.080599999,2393.080599999,2,2,"n",2,"['4', '8', '2', 'space']","y","#000000","no",1348.18110000015,1,"neutral","psycho","psycho","psycho",0,"uniform",1,0,0,0,NA,0,0,NA,0,0,0,0,1,1,NA,NA,NA,NA,0,0,0,NA,1,0,1,73.2296414732588,"Fri Oct 22 15:08:06 2021","The main experiment item","yes","green","no","None","circle",NA,"pinging_target_expectations 5.0.osexp","C:/Users/etp-cp-ping/Desktop/LocalPC-EXP",75,"no","mono","no",18,"no","white","no","yes",1050,NA,100,"psycho",1,0,1,"C:/Users/etp-cp-ping/Desktop/LocalPC-EXP/subject-6.csv","psycho",0,2,2,"Lentiform Loewenfeld","3.3.8","['vert', 'hori', 'vert', 'vert', 'hori', 'vert', 'hori', 'hori']","no",209,"None","yes",0,NA,2,"legacy",NA,1024,2,48000,-16,"experiment",6,"even","red","no",4,"diamond",327344.8838,327364.023999999,327364.065599999,NA,330144.8867,NA,NA,73204.1267999994,1353.01989999971,NA,73204.1497999999,334233.112599999,337746.096999999,NA,NA,NA,NA,1353.09869999946,331200.1929,NA,NA,334233.127300002,331573.3091,334233.064700002,"New experiment",19,"[0]","dist_absent",56,59,"yes","yes",1680,NA,NA,NA,NA,"R","R","lp",NA,NA,NA,NA,NA,NA,"practice",4,"NR","in"
"3",1076.80690000055,3469.88749999955,3469.88749999955,3,3,"n",2,"['4', '8', '2', 'space']","y","#000000","no",1348.18110000015,1,"neutral","psycho","psycho","psycho",0,"uniform",1,0,0,0,NA,0,0,NA,0,0,0,0,2,2,NA,NA,NA,NA,0,0,0,NA,2,0,2,73.2296414732588,"Fri Oct 22 15:08:06 2021","The main experiment item","yes","green","no","1","diamond",NA,"pinging_target_expectations 5.0.osexp","C:/Users/etp-cp-ping/Desktop/LocalPC-EXP",75,"no","mono","no",18,"no","white","no","yes",1050,NA,100,"psycho",2,0,2,"C:/Users/etp-cp-ping/Desktop/LocalPC-EXP/subject-6.csv","psycho",0,3,3,"Lentiform Loewenfeld","3.3.8","['hori', 'vert', 'hori', 'hori', 'hori', 'vert', 'vert', 'vert']","no",209,"None","yes",0,NA,2,"legacy",NA,1024,2,48000,-16,"experiment",6,"even","red","no",6,"circle",327344.8838,327364.023999999,327364.065599999,NA,330144.8867,NA,NA,73204.1267999994,1353.01989999971,NA,73204.1497999999,337778.7231,340898.088900001,NA,NA,NA,NA,1353.09869999946,331200.1929,NA,NA,337778.737699999,331573.3091,337778.674199999,"New experiment",19,"[0]","dist_present",56,72,"yes","yes",1680,NA,NA,NA,NA,"NR","NR","lp",NA,NA,NA,NA,NA,NA,"practice",4,"R","in"
"4",2000.2725999984,5470.16009999794,5470.16009999794,3,3,"n",2,"['4', '8', '2', 'space']","y","#000000","no",1348.18110000015,1,"neutral","psycho","psycho","psycho",0,"uniform",0,0,0,0,NA,0,0,NA,0,0,0,0,3,3,NA,NA,NA,NA,0,0,0,NA,3,0,3,73.2296414732588,"Fri Oct 22 15:08:06 2021","The main experiment item","yes","red","no","6","circle",NA,"pinging_target_expectations 5.0.osexp","C:/Users/etp-cp-ping/Desktop/LocalPC-EXP",75,"no","mono","no",18,"no","white","no","yes",1050,NA,100,"psycho",3,0,3,"C:/Users/etp-cp-ping/Desktop/LocalPC-EXP/subject-6.csv","psycho",0,4,4,"Lentiform Loewenfeld","3.3.8","['vert', 'hori', 'vert', 'vert', 'hori', 'hori', 'hori', 'vert']","yes",109,"diamond","yes",0,NA,2,"legacy",NA,1024,2,48000,-16,"experiment",6,"even","green","no",4,"diamond",327344.8838,327364.023999999,327364.065599999,NA,330144.8867,NA,NA,73204.1267999994,1353.01989999971,NA,73204.1497999999,340928.606599999,344910.040300001,NA,NA,NA,NA,1353.09869999946,331200.1929,NA,NA,340928.621300001,331573.3091,340928.556700001,"New experiment",19,"[0]","dist_present",56,57,"yes","yes",1680,NA,NA,NA,NA,"NR","NR","lp","Right",NA,"Right",NA,NA,NA,"practice",6,"NR","in"
"5",1330.71140000178,6800.87149999972,6800.87149999972,3,3,"n",2,"['4', '8', '2', 'space']","y","#000000","no",1348.18110000015,1,"neutral","psycho","psycho","psycho",0,"uniform",0,0,0,0,NA,0,0,NA,0,0,0,0,4,4,NA,NA,NA,NA,0,0,0,NA,4,0,4,73.2296414732588,"Fri Oct 22 15:08:06 2021","The main experiment item","yes","green","no","7","diamond",NA,"pinging_target_expectations 5.0.osexp","C:/Users/etp-cp-ping/Desktop/LocalPC-EXP",75,"no","mono","no",18,"no","white","no","yes",1050,NA,100,"psycho",4,0,4,"C:/Users/etp-cp-ping/Desktop/LocalPC-EXP/subject-6.csv","psycho",0,5,5,"Lentiform Loewenfeld","3.3.8","['hori', 'vert', 'hori', 'vert', 'vert', 'hori', 'hori', 'vert']","no",209,"None","yes",0,NA,2,"legacy",NA,1024,2,48000,-16,"experiment",6,"even","red","no",2,"circle",327344.8838,327364.023999999,327364.065599999,NA,330144.8867,NA,NA,73204.1267999994,1353.01989999971,NA,73204.1497999999,344940.255599999,348258.155200001,NA,NA,NA,NA,1353.09869999946,331200.1929,NA,NA,344940.2706,331573.3091,344940.206200001,"New experiment",19,"[0]","dist_present",56,38,"yes","yes",1680,NA,NA,NA,NA,"NR","NR","lp",NA,NA,NA,NA,NA,NA,"practice",4,"NR","in"
"6",1198.59500000172,7999.46650000144,7999.46650000144,4,4,"n",2,"['4', '8', '2', 'space']","y","#000000","no",1348.18110000015,1,"neutral","psycho","psycho","psycho",0,"uniform",1,0,0,0,NA,0,0,NA,0,0,0,0,5,5,NA,NA,NA,NA,0,0,0,NA,5,0,5,73.2296414732588,"Fri Oct 22 15:08:06 2021","The main experiment item","yes","green","no","7","circle",NA,"pinging_target_expectations 5.0.osexp","C:/Users/etp-cp-ping/Desktop/LocalPC-EXP",75,"no","mono","no",18,"no","white","no","yes",1050,NA,100,"psycho",5,0,5,"C:/Users/etp-cp-ping/Desktop/LocalPC-EXP/subject-6.csv","psycho",0,6,6,"Lentiform Loewenfeld","3.3.8","['vert', 'vert', 'hori', 'vert', 'hori', 'vert', 'hori', 'hori']","yes",109,"circles","yes",0,NA,2,"legacy",NA,1024,2,48000,-16,"experiment",6,"even","red","no",2,"diamond",327344.8838,327364.023999999,327364.065599999,NA,330144.8867,NA,NA,73204.1267999994,1353.01989999971,NA,73204.1497999999,348288.738499999,351346.0701,NA,NA,NA,NA,1353.09869999946,331200.1929,NA,NA,348288.753100001,331573.3091,348288.688799999,"New experiment",19,"[0]","dist_present",56,38,"yes","yes",1680,NA,NA,NA,NA,"R","R","lp",NA,NA,NA,NA,NA,NA,"practice",2,"NR","in"
"7",1137.24730000104,9136.71380000247,9136.71380000247,4,4,"n",2,"['4', '8', '2', 'space']","y","#000000","no",1348.18110000015,1,"neutral","psycho","psycho","psycho",0,"uniform",0,0,0,0,NA,0,0,NA,0,0,0,0,6,6,NA,NA,NA,NA,0,0,0,NA,6,0,6,73.2296414732588,"Fri Oct 22 15:08:06 2021","The main experiment item","yes","red","no","6","diamond",NA,"pinging_target_expectations 5.0.osexp","C:/Users/etp-cp-ping/Desktop/LocalPC-EXP",75,"no","mono","no",18,"no","white","no","yes",1050,NA,100,"psycho",6,0,6,"C:/Users/etp-cp-ping/Desktop/LocalPC-EXP/subject-6.csv","psycho",0,7,7,"Lentiform Loewenfeld","3.3.8","['vert', 'hori', 'vert', 'hori', 'hori', 'vert', 'hori', 'vert']","yes",109,"diamond","yes",0,NA,2,"legacy",NA,1024,2,48000,-16,"experiment",6,"even","green","no",1,"circle",327344.8838,327364.023999999,327364.065599999,NA,330144.8867,NA,NA,73204.1267999994,1353.01989999971,NA,73204.1497999999,351376.596499998,354370.1009,NA,NA,NA,NA,1353.09869999946,331200.1929,NA,NA,351376.611299998,331573.3091,351376.5456,"New experiment",19,"[0]","dist_present",56,27,"yes","yes",1680,NA,NA,NA,NA,"NR","NR","lp",NA,NA,NA,NA,NA,NA,"practice",2,"R","in"
"8",1201.09249999945,10337.8063000019,10337.8063000019,4,4,"n",2,"['4', '8', '2', 'space']","y","#000000","no",1348.18110000015,1,"neutral","psycho","psycho","psycho",0,"uniform",0,0,0,0,NA,0,0,NA,0,0,0,0,7,7,NA,NA,NA,NA,0,0,0,NA,7,0,7,73.2296414732588,"Fri Oct 22 15:08:06 2021","The main experiment item","yes","red","no","None","diamond",NA,"pinging_target_expectations 5.0.osexp","C:/Users/etp-cp-ping/Desktop/LocalPC-EXP",75,"no","mono","no",18,"no","white","no","yes",1050,NA,100,"psycho",7,0,7,"C:/Users/etp-cp-ping/Desktop/LocalPC-EXP/subject-6.csv","psycho",0,8,8,"Lentiform Loewenfeld","3.3.8","['hori', 'vert', 'vert', 'hori', 'hori', 'hori', 'vert', 'vert']","yes",109,"circles","yes",0,NA,2,"legacy",NA,1024,2,48000,-16,"experiment",6,"even","green","no",7,"circle",327344.8838,327364.023999999,327364.065599999,NA,330144.8867,NA,NA,73204.1267999994,1353.01989999971,NA,73204.1497999999,354402.5655,357250.191700001,NA,NA,NA,NA,1353.09869999946,331200.1929,NA,NA,354402.580000002,331573.3091,354402.5162,"New experiment",19,"[0]","dist_absent",56,89,"yes","yes",1680,NA,NA,NA,NA,"NR","NR","lp",NA,"Right",NA,NA,NA,NA,"practice",1,"NR","in"
"9",1302.13480000023,11639.9411000022,11639.9411000022,4,4,"n",2,"['4', '8', '2', 'space']","y","#000000","no",1348.18110000015,1,"neutral","psycho","psycho","psycho",0,"uniform",0,0,0,0,NA,0,0,NA,0,0,0,0,8,8,NA,NA,NA,NA,0,0,0,NA,8,0,8,73.2296414732588,"Fri Oct 22 15:08:06 2021","The main experiment item","yes","green","no","1","diamond",NA,"pinging_target_expectations 5.0.osexp","C:/Users/etp-cp-ping/Desktop/LocalPC-EXP",75,"no","mono","no",18,"no","white","no","yes",1050,NA,100,"psycho",8,0,8,"C:/Users/etp-cp-ping/Desktop/LocalPC-EXP/subject-6.csv","psycho",0,9,9,"Lentiform Loewenfeld","3.3.8","['hori', 'vert', 'hori', 'vert', 'vert', 'vert', 'hori', 'hori']","no",209,"None","yes",0,NA,2,"legacy",NA,1024,2,48000,-16,"experiment",6,"even","red","no",5,"circle",327344.8838,327364.023999999,327364.065599999,NA,330144.8867,NA,NA,73204.1267999994,1353.01989999971,NA,73204.1497999999,357280.833500001,360306.1265,NA,NA,NA,NA,1353.09869999946,331200.1929,NA,NA,357280.848300001,331573.3091,357280.7861,"New experiment",19,"[0]","dist_present",56,62,"yes","yes",1680,NA,NA,NA,NA,"NR","NR","lp",NA,NA,NA,NA,NA,NA,"practice",7,"NR","in"
"10",2000.25090000057,13640.1920000027,13640.1920000027,4,4,"n",2,"['4', '8', '2', 'space']","y","#000000","no",1348.18110000015,1,"neutral","psycho","psycho","psycho",0,"uniform",0,0,0,0,NA,0,0,NA,0,0,0,0,9,9,NA,NA,NA,NA,0,0,0,NA,9,0,9,73.2296414732588,"Fri Oct 22 15:08:06 2021","The main experiment item","yes","green","no","7","circle",NA,"pinging_target_expectations 5.0.osexp","C:/Users/etp-cp-ping/Desktop/LocalPC-EXP",75,"no","mono","no",18,"no","white","no","yes",1050,NA,100,"psycho",9,0,9,"C:/Users/etp-cp-ping/Desktop/LocalPC-EXP/subject-6.csv","psycho",0,10,10,"Lentiform Loewenfeld","3.3.8","['hori', 'vert', 'hori', 'hori', 'vert', 'vert', 'hori', 'vert']","yes",109,"circles","yes",0,NA,2,"legacy",NA,1024,2,48000,-16,"experiment",6,"even","red","no",0,"diamond",327344.8838,327364.023999999,327364.065599999,NA,330144.8867,NA,NA,73204.1267999994,1353.01989999971,NA,73204.1497999999,360337.002799999,364226.491599999,NA,NA,NA,NA,1353.09869999946,331200.1929,NA,NA,360337.0172,331573.3091,360336.9532,"New experiment",19,"[0]","dist_present",56,18,"yes","yes",1680,NA,NA,NA,NA,"NR","NR","lp","Right",NA,NA,NA,NA,NA,"practice",5,"NR","in"
"11",1310.46980000247,14950.6618000052,14950.6618000052,5,5,"n",2,"['4', '8', '2', 'space']","y","#000000","no",1348.18110000015,1,"neutral","psycho","psycho","psycho",0,"uniform",1,0,0,0,NA,0,0,NA,0,0,0,0,10,10,NA,NA,NA,NA,0,0,0,NA,10,0,10,73.2296414732588,"Fri Oct 22 15:08:06 2021","The main experiment item","yes","red","no","None","circle",NA,"pinging_target_expectations 5.0.osexp","C:/Users/etp-cp-ping/Desktop/LocalPC-EXP",75,"no","mono","no",18,"no","white","no","yes",1050,NA,100,"psycho",10,0,10,"C:/Users/etp-cp-ping/Desktop/LocalPC-EXP/subject-6.csv","psycho",0,11,11,"Lentiform Loewenfeld","3.3.8","['vert', 'hori', 'vert', 'vert', 'hori', 'hori', 'vert', 'hori']","no",209,"None","yes",0,NA,2,"legacy",NA,1024,2,48000,-16,"experiment",6,"even","green","no",5,"diamond",327344.8838,327364.023999999,327364.065599999,NA,330144.8867,NA,NA,73204.1267999994,1353.01989999971,NA,73204.1497999999,364258.492000001,367666.070700001,NA,NA,NA,NA,1353.09869999946,331200.1929,NA,NA,364258.506499999,331573.3091,364258.443800001,"New experiment",19,"[0]","dist_absent",56,69,"yes","yes",1680,NA,NA,NA,NA,"NR","NR","lp",NA,"Right",NA,NA,NA,NA,"practice",0,"NR","in"
"12",1892.93919999909,16843.6010000043,16843.6010000043,5,5,"n",2,"['4', '8', '2', 'space']","y","#000000","no",1348.18110000015,1,"neutral","psycho","psycho","psycho",0,"uniform",0,0,0,0,NA,0,0,NA,0,0,0,0,11,11,NA,NA,NA,NA,0,0,0,NA,11,0,11,73.2296414732588,"Fri Oct 22 15:08:06 2021","The main experiment item","yes","red","no","5","circle",NA,"pinging_target_expectations 5.0.osexp","C:/Users/etp-cp-ping/Desktop/LocalPC-EXP",75,"no","mono","no",18,"no","white","no","yes",1050,NA,100,"psycho",11,0,11,"C:/Users/etp-cp-ping/Desktop/LocalPC-EXP/subject-6.csv","psycho",0,12,12,"Lentiform Loewenfeld","3.3.8","['hori', 'vert', 'hori', 'vert', 'hori', 'vert', 'vert', 'hori']","yes",109,"circles","yes",0,NA,2,"legacy",NA,1024,2,48000,-16,"experiment",6,"even","green","no",4,"diamond",327344.8838,327364.023999999,327364.065599999,NA,330144.8867,NA,NA,73204.1267999994,1353.01989999971,NA,73204.1497999999,367696.554999999,371474.129099999,NA,NA,NA,NA,1353.09869999946,331200.1929,NA,NA,367696.569700001,331573.3091,367696.5045,"New experiment",19,"[0]","dist_present",56,56,"yes","yes",1680,NA,NA,NA,NA,"NR","NR","lp","Right",NA,NA,NA,NA,NA,"practice",5,"NR","in"
"13",2000.92279999808,18844.5238000024,18844.5238000024,5,5,"n",2,"['4', '8', '2', 'space']","y","#000000","no",1348.18110000015,1,"neutral","psycho","psycho","psycho",0,"uniform",0,0,0,0,NA,0,0,NA,0,0,0,0,12,12,NA,NA,NA,NA,0,0,0,NA,12,0,12,73.2296414732588,"Fri Oct 22 15:08:06 2021","The main experiment item","yes","red","no","2","circle",NA,"pinging_target_expectations 5.0.osexp","C:/Users/etp-cp-ping/Desktop/LocalPC-EXP",75,"no","mono","no",18,"no","white","no","yes",1050,NA,100,"psycho",12,0,12,"C:/Users/etp-cp-ping/Desktop/LocalPC-EXP/subject-6.csv","psycho",0,13,13,"Lentiform Loewenfeld","3.3.8","['hori', 'hori', 'vert', 'hori', 'hori', 'vert', 'vert', 'vert']","yes",109,"diamond","yes",0,NA,2,"legacy",NA,1024,2,48000,-16,"experiment",6,"even","green","no",3,"diamond",327344.8838,327364.023999999,327364.065599999,NA,330144.8867,NA,NA,73204.1267999994,1353.01989999971,NA,73204.1497999999,371504.703800001,375297.137000001,NA,NA,NA,NA,1353.09869999946,331200.1929,NA,NA,371504.718200002,331573.3091,371504.653399999,"New experiment",19,"[0]","dist_present",56,43,"yes","yes",1680,NA,NA,NA,NA,"NR","NR","lp",NA,NA,NA,NA,NA,NA,"practice",4,"NR","in"
"14",1489.16900000046,20333.6928000028,20333.6928000028,6,6,"n",2,"['4', '8', '2', 'space']","y","#000000","no",376795.7775,1,"neutral","psycho","psycho","psycho",0,"uniform",1,0,0,0,NA,0,0,NA,0,0,0,0,13,13,NA,NA,NA,NA,0,0,0,NA,13,0,13,73.2296414732588,"Fri Oct 22 15:08:06 2021","The main experiment item","yes","green","no","None","diamond",NA,"pinging_target_expectations 5.0.osexp","C:/Users/etp-cp-ping/Desktop/LocalPC-EXP",75,"no","mono","no",18,"no","white","no","yes",1050,NA,100,"psycho",13,0,13,"C:/Users/etp-cp-ping/Desktop/LocalPC-EXP/subject-6.csv","psycho",1,14,14,"Lentiform Loewenfeld","3.3.8","['hori', 'hori', 'vert', 'vert', 'vert', 'hori', 'vert', 'hori']","no",209,"None","yes",0,NA,2,"legacy",NA,1024,2,48000,-16,"experiment",6,"even","red","no",7,"circle",327344.8838,327364.023999999,327364.065599999,NA,330144.8867,NA,NA,73204.1267999994,1353.01989999971,NA,73204.1497999999,375327.345099999,378770.0864,NA,NA,NA,NA,1353.09869999946,331200.1929,NA,NA,375327.3596,331573.3091,375327.2961,"New experiment",19,"[0]","dist_absent",56,89,"yes","yes",1680,NA,NA,NA,NA,"NR","NR","lp",NA,"Right",NA,NA,NA,NA,"practice",3,"NR","in"
"15",1620.48420000065,21954.1770000035,21954.1770000035,6,6,"n",2,"['4', '8', '2', 'space']","y","#000000","no",376795.7775,1,"neutral","psycho","psycho","psycho",0,"uniform",0,0,0,0,NA,0,0,NA,0,0,0,0,14,14,NA,NA,NA,NA,0,0,0,NA,14,0,14,73.2296414732588,"Fri Oct 22 15:08:06 2021","The main experiment item","yes","green","no","0","diamond",NA,"pinging_target_expectations 5.0.osexp","C:/Users/etp-cp-ping/Desktop/LocalPC-EXP",75,"no","mono","no",18,"no","white","no","yes",1050,NA,100,"psycho",14,0,14,"C:/Users/etp-cp-ping/Desktop/LocalPC-EXP/subject-6.csv","psycho",1,15,15,"Lentiform Loewenfeld","3.3.8","['vert', 'hori', 'vert', 'hori', 'vert', 'vert', 'hori', 'hori']","yes",109,"diamond","yes",0,NA,2,"legacy",NA,1024,2,48000,-16,"experiment",6,"even","red","no",5,"circle",327344.8838,327364.023999999,327364.065599999,NA,330144.8867,NA,NA,73204.1267999994,1353.01989999971,NA,73204.1497999999,378801.018800001,382562.053599999,NA,NA,NA,NA,1353.09869999946,331200.1929,NA,NA,378801.033700001,331573.3091,378800.968899999,"New experiment",19,"[0]","dist_present",56,61,"yes","yes",1680,NA,NA,NA,NA,"NR","NR","lp",NA,"Right",NA,NA,NA,NA,"practice",7,"NR","in"
"16",1156.5786000028,23110.7556000063,23110.7556000063,7,7,"n",2,"['4', '8', '2', 'space']","y","#000000","no",376795.7775,1,"neutral","psycho","psycho","psycho",0,"uniform",1,0,0,0,NA,0,0,NA,0,0,0,0,15,15,NA,NA,NA,NA,0,0,0,NA,15,0,15,73.2296414732588,"Fri Oct 22 15:08:06 2021","The main experiment item","yes","red","no","6","circle",NA,"pinging_target_expectations 5.0.osexp","C:/Users/etp-cp-ping/Desktop/LocalPC-EXP",75,"no","mono","no",18,"no","white","no","yes",1050,NA,100,"psycho",15,0,15,"C:/Users/etp-cp-ping/Desktop/LocalPC-EXP/subject-6.csv","psycho",1,16,16,"Lentiform Loewenfeld","3.3.8","['hori', 'hori', 'vert', 'vert', 'hori', 'vert', 'hori', 'vert']","yes",109,"circles","yes",0,NA,2,"legacy",NA,1024,2,48000,-16,"experiment",6,"even","green","no",2,"diamond",327344.8838,327364.023999999,327364.065599999,NA,330144.8867,NA,NA,73204.1267999994,1353.01989999971,NA,73204.1497999999,382592.794100001,385586.109899999,NA,NA,NA,NA,1353.09869999946,331200.1929,NA,NA,382592.808599999,331573.3091,382592.7453,"New experiment",19,"[0]","dist_present",56,37,"yes","yes",1680,NA,NA,NA,NA,"NR","NR","lp",NA,NA,NA,NA,NA,NA,"practice",5,"NR","in"
"17",1114.9121999988,24225.6678000051,24225.6678000051,7,7,"n",2,"['4', '8', '2', 'space']","y","#000000","no",386904.0021,1,"neutral","psycho","psycho","psycho",0,"uniform",0,0,0,0,NA,0,0,NA,0,0,0,0,16,16,NA,NA,NA,NA,0,0,0,NA,16,0,16,73.2296414732588,"Fri Oct 22 15:08:06 2021","The main experiment item","yes","red","no","5","circle",NA,"pinging_target_expectations 5.0.osexp","C:/Users/etp-cp-ping/Desktop/LocalPC-EXP",75,"no","mono","no",18,"no","white","no","yes",1050,NA,100,"psycho",16,0,16,"C:/Users/etp-cp-ping/Desktop/LocalPC-EXP/subject-6.csv","psycho",2,17,17,"Lentiform Loewenfeld","3.3.8","['hori', 'hori', 'vert', 'hori', 'vert', 'vert', 'vert', 'hori']","yes",109,"circles","yes",0,NA,2,"legacy",NA,1024,2,48000,-16,"experiment",6,"even","green","no",6,"diamond",327344.8838,327364.023999999,327364.065599999,NA,330144.8867,NA,NA,73204.1267999994,1353.01989999971,NA,73204.1497999999,385616.615899999,388706.106400001,NA,NA,NA,NA,1353.09869999946,331200.1929,NA,NA,385616.630600001,331573.3091,385616.567100002,"New experiment",19,"[0]","dist_present",56,76,"yes","yes",1680,NA,NA,NA,NA,"NR","NR","lp",NA,NA,NA,NA,NA,NA,"practice",2,"NR","in"
"18",1400.07500000141,25625.7428000065,25625.7428000065,8,8,"n",2,"['4', '8', '2', 'space']","y","#000000","no",386904.0021,1,"neutral","psycho","psycho","psycho",0,"uniform",1,0,0,0,NA,0,0,NA,0,0,0,0,17,17,NA,NA,NA,NA,0,0,0,NA,17,0,17,73.2296414732588,"Fri Oct 22 15:08:06 2021","The main experiment item","yes","green","no","0","circle",NA,"pinging_target_expectations 5.0.osexp","C:/Users/etp-cp-ping/Desktop/LocalPC-EXP",75,"no","mono","no",18,"no","white","no","yes",1050,NA,100,"psycho",17,0,17,"C:/Users/etp-cp-ping/Desktop/LocalPC-EXP/subject-6.csv","psycho",2,18,18,"Lentiform Loewenfeld","3.3.8","['hori', 'hori', 'vert', 'vert', 'hori', 'vert', 'hori', 'vert']","yes",109,"circles","yes",0,NA,2,"legacy",NA,1024,2,48000,-16,"experiment",6,"even","red","no",5,"diamond",327344.8838,327364.023999999,327364.065599999,NA,330144.8867,NA,NA,73204.1267999994,1353.01989999971,NA,73204.1497999999,388736.667599998,392162.1409,NA,NA,NA,NA,1353.09869999946,331200.1929,NA,NA,388736.681999999,331573.3091,388736.616900002,"New experiment",19,"[0]","dist_present",56,61,"yes","yes",1680,NA,NA,NA,NA,"NR","NR","lp",NA,"Right",NA,NA,NA,NA,"practice",6,"NR","in"
"19",1977.02390000271,27602.7667000092,27602.7667000092,9,9,"n",2,"['4', '8', '2', 'space']","y","#000000","no",386904.0021,1,"neutral","psycho","psycho","psycho",0,"uniform",1,0,0,0,NA,0,0,NA,0,0,0,0,18,18,NA,NA,NA,NA,0,0,0,NA,18,0,18,73.2296414732588,"Fri Oct 22 15:08:06 2021","The main experiment item","yes","red","no","0","circle",NA,"pinging_target_expectations 5.0.osexp","C:/Users/etp-cp-ping/Desktop/LocalPC-EXP",75,"no","mono","no",18,"no","white","no","yes",1050,NA,100,"psycho",18,0,18,"C:/Users/etp-cp-ping/Desktop/LocalPC-EXP/subject-6.csv","psycho",2,19,19,"Lentiform Loewenfeld","3.3.8","['hori', 'hori', 'vert', 'vert', 'vert', 'hori', 'vert', 'hori']","no",209,"None","yes",0,NA,2,"legacy",NA,1024,2,48000,-16,"experiment",6,"even","green","no",6,"diamond",327344.8838,327364.023999999,327364.065599999,NA,330144.8867,NA,NA,73204.1267999994,1353.01989999971,NA,73204.1497999999,392194.572299999,395938.168100001,NA,NA,NA,NA,1353.09869999946,331200.1929,NA,NA,392194.587499998,331573.3091,392194.519500001,"New experiment",19,"[0]","dist_present",56,71,"yes","yes",1680,NA,NA,NA,NA,"NR","R","lp",NA,"Right",NA,"Right",NA,NA,"practice",5,"NR","in"
"20",2000.67969999876,29603.4464000079,29603.4464000079,9,9,"n",2,"['4', '8', '2', 'space']","y","#000000","no",386904.0021,1,"neutral","psycho","psycho","psycho",0,"uniform",0,0,0,0,NA,0,0,NA,0,0,0,0,19,19,NA,NA,NA,NA,0,0,0,NA,19,0,19,73.2296414732588,"Fri Oct 22 15:08:06 2021","The main experiment item","yes","red","no","7","diamond",NA,"pinging_target_expectations 5.0.osexp","C:/Users/etp-cp-ping/Desktop/LocalPC-EXP",75,"no","mono","no",18,"no","white","no","yes",1050,NA,100,"psycho",19,0,19,"C:/Users/etp-cp-ping/Desktop/LocalPC-EXP/subject-6.csv","psycho",2,20,20,"Lentiform Loewenfeld","3.3.8","['vert', 'hori', 'hori', 'vert', 'vert', 'hori', 'hori', 'vert']","yes",109,"diamond","yes",0,NA,2,"legacy",NA,1024,2,48000,-16,"experiment",6,"even","green","no",6,"circle",327344.8838,327364.023999999,327364.065599999,NA,330144.8867,NA,NA,73204.1267999994,1353.01989999971,NA,73204.1497999999,395968.663600001,399810.310699999,NA,NA,NA,NA,1353.09869999946,331200.1929,NA,NA,395968.6783,331573.3091,395968.613500001,"New experiment",19,"[0]","dist_present",56,78,"yes","yes",1680,NA,NA,NA,NA,"R","NR","lp",NA,NA,NA,NA,NA,NA,"practice",6,"NR","in"
"21",1376.64670000231,30980.0931000102,30980.0931000102,10,10,"n",2,"['4', '8', '2', 'space']","y","#000000","no",400650.272899999,1,"neutral","psycho","psycho","psycho",0,"uniform",1,0,0,0,NA,0,0,NA,0,0,0,0,20,20,NA,NA,NA,NA,0,0,0,NA,20,0,20,73.2296414732588,"Fri Oct 22 15:08:06 2021","The main experiment item","yes","green","no","2","circle",NA,"pinging_target_expectations 5.0.osexp","C:/Users/etp-cp-ping/Desktop/LocalPC-EXP",75,"no","mono","no",18,"no","white","no","yes",1050,NA,100,"psycho",20,0,20,"C:/Users/etp-cp-ping/Desktop/LocalPC-EXP/subject-6.csv","psycho",3,21,21,"Lentiform Loewenfeld","3.3.8","['vert', 'hori', 'hori', 'vert', 'hori', 'hori', 'vert', 'vert']","no",209,"None","yes",0,NA,2,"legacy",NA,1024,2,48000,-16,"experiment",6,"even","red","no",5,"diamond",327344.8838,327364.023999999,327364.065599999,NA,330144.8867,NA,NA,73204.1267999994,1353.01989999971,NA,73204.1497999999,399842.727200001,403106.119399999,NA,NA,NA,NA,1353.09869999946,331200.1929,NA,NA,399842.7419,331573.3091,399842.678699999,"New experiment",19,"[0]","dist_present",56,63,"yes","yes",1680,NA,NA,NA,NA,"NR","NR","lp",NA,NA,NA,NA,NA,NA,"practice",6,"R","in"
"22",1816.39820000052,32796.4913000108,32796.4913000108,11,11,"n",2,"['4', '8', '2', 'space']","y","#000000","no",400650.272899999,1,"neutral","psycho","psycho","psycho",0,"uniform",1,0,0,0,NA,0,0,NA,0,0,0,0,21,21,NA,NA,NA,NA,0,0,0,NA,21,0,21,73.2296414732588,"Fri Oct 22 15:08:06 2021","The main experiment item","yes","green","no","5","diamond",NA,"pinging_target_expectations 5.0.osexp","C:/Users/etp-cp-ping/Desktop/LocalPC-EXP",75,"no","mono","no",18,"no","white","no","yes",1050,NA,100,"psycho",21,0,21,"C:/Users/etp-cp-ping/Desktop/LocalPC-EXP/subject-6.csv","psycho",3,22,22,"Lentiform Loewenfeld","3.3.8","['vert', 'vert', 'hori', 'hori', 'vert', 'hori', 'vert', 'hori']","no",209,"None","yes",0,NA,2,"legacy",NA,1024,2,48000,-16,"experiment",6,"even","red","no",2,"circle",327344.8838,327364.023999999,327364.065599999,NA,330144.8867,NA,NA,73204.1267999994,1353.01989999971,NA,73204.1497999999,403138.0465,406802.145900001,NA,NA,NA,NA,1353.09869999946,331200.1929,NA,NA,403138.061000002,331573.3091,403137.9968,"New experiment",19,"[0]","dist_present",56,36,"yes","yes",1680,NA,NA,NA,NA,"NR","NR","lp",NA,NA,NA,NA,NA,NA,"practice",5,"NR","in"
"23",1487.39790000039,34283.8892000112,34283.8892000112,12,12,"n",2,"['4', '8', '2', 'space']","y","#000000","no",400650.272899999,1,"neutral","psycho","psycho","psycho",0,"uniform",1,0,0,0,NA,0,0,NA,0,0,0,0,22,22,NA,NA,NA,NA,0,0,0,NA,22,0,22,73.2296414732588,"Fri Oct 22 15:08:06 2021","The main experiment item","yes","green","no","None","diamond",NA,"pinging_target_expectations 5.0.osexp","C:/Users/etp-cp-ping/Desktop/LocalPC-EXP",75,"no","mono","no",18,"no","white","no","yes",1050,NA,100,"psycho",22,0,22,"C:/Users/etp-cp-ping/Desktop/LocalPC-EXP/subject-6.csv","psycho",3,23,23,"Lentiform Loewenfeld","3.3.8","['vert', 'vert', 'hori', 'hori', 'vert', 'hori', 'vert', 'hori']","no",209,"None","yes",0,NA,2,"legacy",NA,1024,2,48000,-16,"experiment",6,"even","red","no",1,"circle",327344.8838,327364.023999999,327364.065599999,NA,330144.8867,NA,NA,73204.1267999994,1353.01989999971,NA,73204.1497999999,406832.6542,410130.150699999,NA,NA,NA,NA,1353.09869999946,331200.1929,NA,NA,406832.668700001,331573.3091,406832.604899999,"New experiment",19,"[0]","dist_absent",56,29,"yes","yes",1680,NA,NA,NA,NA,"NR","NR","lp",NA,"Left",NA,NA,NA,NA,"practice",2,"NR","in"
"24",1282.61710000155,35566.5063000127,35566.5063000127,13,13,"n",2,"['4', '8', '2', 'space']","y","#000000","no",400650.272899999,1,"neutral","psycho","psycho","psycho",0,"uniform",1,0,0,0,NA,0,0,NA,0,0,0,0,23,23,NA,NA,NA,NA,0,0,0,NA,23,0,23,73.2296414732588,"Fri Oct 22 15:08:06 2021","The main experiment item","yes","green","no","4","circle",NA,"pinging_target_expectations 5.0.osexp","C:/Users/etp-cp-ping/Desktop/LocalPC-EXP",75,"no","mono","no",18,"no","white","no","yes",1050,NA,100,"psycho",23,0,23,"C:/Users/etp-cp-ping/Desktop/LocalPC-EXP/subject-6.csv","psycho",3,24,24,"Lentiform Loewenfeld","3.3.8","['hori', 'hori', 'vert', 'hori', 'vert', 'vert', 'hori', 'vert']","no",209,"None","yes",0,NA,2,"legacy",NA,1024,2,48000,-16,"experiment",6,"even","red","no",7,"diamond",327344.8838,327364.023999999,327364.065599999,NA,330144.8867,NA,NA,73204.1267999994,1353.01989999971,NA,73204.1497999999,410160.737900002,413506.153900002,NA,NA,NA,NA,1353.09869999946,331200.1929,NA,NA,410160.752799999,331573.3091,410160.687,"New experiment",19,"[0]","dist_present",56,85,"yes","yes",1680,NA,NA,NA,NA,"NR","NR","lp",NA,"Right",NA,NA,NA,NA,"practice",1,"NR","in"
"25",831.595800002106,36398.1021000148,36398.1021000148,14,14,"n",2,"['4', '8', '2', 'space']","y","#000000","no",400650.272899999,1,"neutral","psycho","psycho","psycho",0,"uniform",1,0,0,0,NA,0,0,NA,0,0,0,0,24,24,NA,NA,NA,NA,0,0,0,NA,24,0,24,73.2296414732588,"Fri Oct 22 15:08:06 2021","The main experiment item","yes","green","no","4","circle",NA,"pinging_target_expectations 5.0.osexp","C:/Users/etp-cp-ping/Desktop/LocalPC-EXP",75,"no","mono","no",18,"no","white","no","yes",1050,NA,100,"psycho",24,0,24,"C:/Users/etp-cp-ping/Desktop/LocalPC-EXP/subject-6.csv","psycho",3,25,25,"Lentiform Loewenfeld","3.3.8","['hori', 'hori', 'hori', 'vert', 'vert', 'vert', 'vert', 'hori']","yes",109,"circles","yes",0,NA,2,"legacy",NA,1024,2,48000,-16,"experiment",6,"even","red","no",1,"diamond",327344.8838,327364.023999999,327364.065599999,NA,330144.8867,NA,NA,73204.1267999994,1353.01989999971,NA,73204.1497999999,413536.704400001,416146.577,NA,NA,NA,NA,1353.09869999946,331200.1929,NA,NA,413536.719299998,331573.3091,413536.655399999,"New experiment",19,"[0]","dist_present",56,25,"yes","yes",1680,NA,NA,NA,NA,"NR","R","lp",NA,"Left",NA,NA,NA,NA,"practice",7,"NR","in"
"26",1328.5468000031,37726.6489000179,37726.6489000179,15,15,"n",2,"['4', '8', '2', 'space']","y","#000000","no",400650.272899999,1,"neutral","psycho","psycho","psycho",0,"uniform",1,0,0,0,NA,0,0,NA,0,0,0,0,25,25,NA,NA,NA,NA,0,0,0,NA,25,0,25,73.2296414732588,"Fri Oct 22 15:08:06 2021","The main experiment item","yes","green","no","3","diamond",NA,"pinging_target_expectations 5.0.osexp","C:/Users/etp-cp-ping/Desktop/LocalPC-EXP",75,"no","mono","no",18,"no","white","no","yes",1050,NA,100,"psycho",25,0,25,"C:/Users/etp-cp-ping/Desktop/LocalPC-EXP/subject-6.csv","psycho",3,26,26,"Lentiform Loewenfeld","3.3.8","['vert', 'hori', 'hori', 'vert', 'hori', 'vert', 'hori', 'vert']","yes",109,"diamond","yes",0,NA,2,"legacy",NA,1024,2,48000,-16,"experiment",6,"even","red","no",4,"circle",327344.8838,327364.023999999,327364.065599999,NA,330144.8867,NA,NA,73204.1267999994,1353.01989999971,NA,73204.1497999999,416177.327400001,419538.291299999,NA,NA,NA,NA,1353.09869999946,331200.1929,NA,NA,416177.341999999,331573.3091,416177.276599999,"New experiment",19,"[0]","dist_present",56,54,"yes","yes",1680,NA,NA,NA,NA,"NR","NR","lp","Left",NA,NA,NA,NA,NA,"practice",1,"NR","in"
"27",1852.05610000051,39578.7050000184,39578.7050000184,15,15,"n",2,"['4', '8', '2', 'space']","y","#000000","no",400650.272899999,1,"neutral","psycho","psycho","psycho",0,"uniform",0,0,0,0,NA,0,0,NA,0,0,0,0,26,26,NA,NA,NA,NA,0,0,0,NA,26,0,26,73.2296414732588,"Fri Oct 22 15:08:06 2021","The main experiment item","yes","green","no","0","diamond",NA,"pinging_target_expectations 5.0.osexp","C:/Users/etp-cp-ping/Desktop/LocalPC-EXP",75,"no","mono","no",18,"no","white","no","yes",1050,NA,100,"psycho",26,0,26,"C:/Users/etp-cp-ping/Desktop/LocalPC-EXP/subject-6.csv","psycho",3,27,27,"Lentiform Loewenfeld","3.3.8","['hori', 'vert', 'vert', 'hori', 'vert', 'hori', 'vert', 'hori']","no",209,"None","yes",0,NA,2,"legacy",NA,1024,2,48000,-16,"experiment",6,"even","red","no",6,"circle",327344.8838,327364.023999999,327364.065599999,NA,330144.8867,NA,NA,73204.1267999994,1353.01989999971,NA,73204.1497999999,419568.973599999,423378.1609,NA,NA,NA,NA,1353.09869999946,331200.1929,NA,NA,419568.988200001,331573.3091,419568.924499999,"New experiment",19,"[0]","dist_present",56,71,"yes","yes",1680,NA,NA,NA,NA,"NR","NR","lp",NA,"Right",NA,"Right",NA,NA,"practice",4,"NR","in"
"28",1898.18449999799,41476.8895000164,41476.8895000164,16,16,"n",2,"['4', '8', '2', 'space']","y","#000000","no",400650.272899999,1,"neutral","psycho","psycho","psycho",0,"uniform",1,0,0,0,NA,0,0,NA,0,0,0,0,27,27,NA,NA,NA,NA,0,0,0,NA,27,0,27,73.2296414732588,"Fri Oct 22 15:08:06 2021","The main experiment item","yes","red","no","None","circle",NA,"pinging_target_expectations 5.0.osexp","C:/Users/etp-cp-ping/Desktop/LocalPC-EXP",75,"no","mono","no",18,"no","white","no","yes",1050,NA,100,"psycho",27,0,27,"C:/Users/etp-cp-ping/Desktop/LocalPC-EXP/subject-6.csv","psycho",3,28,28,"Lentiform Loewenfeld","3.3.8","['hori', 'hori', 'vert', 'hori', 'vert', 'vert', 'vert', 'hori']","no",209,"None","yes",0,NA,2,"legacy",NA,1024,2,48000,-16,"experiment",6,"even","green","no",2,"diamond",327344.8838,327364.023999999,327364.065599999,NA,330144.8867,NA,NA,73204.1267999994,1353.01989999971,NA,73204.1497999999,423408.852199998,427346.204099998,NA,NA,NA,NA,1353.09869999946,331200.1929,NA,NA,423408.866599999,331573.3091,423408.803800001,"New experiment",19,"[0, 75.63153295323166, 77.84409350147993, 78.32402508345815, 78.64000254323496, 79.60056532462568, 78.02834627407412, 78.4872539693247, 79.26516973923827, 79.07591289387686, 78.97856516095622, 76.98605862529264, 76.18462321207338, 75.89313000936501, 75.795519661665, 75.73267589516652]","dist_absent",56,39,"yes","yes",1680,NA,NA,NA,NA,"NR","NR","lp",NA,"Left",NA,"Left",NA,NA,"practice",6,"NR","in"
"29",891.397499999614,42368.287000016,42368.287000016,17,17,"n",2,"['4', '8', '2', 'space']","y","#000000","no",400650.272899999,1,"neutral","psycho","psycho","psycho",0,"uniform",1,0,0,0,NA,0,0,NA,0,0,0,0,28,28,NA,NA,NA,NA,0,0,0,NA,28,0,28,73.2296414732588,"Fri Oct 22 15:08:06 2021","The main experiment item","yes","red","no","1","diamond",NA,"pinging_target_expectations 5.0.osexp","C:/Users/etp-cp-ping/Desktop/LocalPC-EXP",75,"no","mono","no",18,"no","white","no","yes",1050,NA,100,"psycho",28,0,28,"C:/Users/etp-cp-ping/Desktop/LocalPC-EXP/subject-6.csv","psycho",3,29,29,"Lentiform Loewenfeld","3.3.8","['vert', 'hori', 'vert', 'vert', 'hori', 'hori', 'vert', 'hori']","no",209,"None","yes",0,NA,2,"legacy",NA,1024,2,48000,-16,"experiment",6,"even","green","no",3,"circle",327344.8838,327364.023999999,327364.065599999,NA,330144.8867,NA,NA,73204.1267999994,1353.01989999971,NA,73204.1497999999,427376.9717,430290.254200001,NA,NA,NA,NA,1353.09869999946,331200.1929,NA,NA,427376.986399999,331573.3091,427376.921999999,"New experiment",19,"[0, 73.93898650635623, 73.74240163784032, 74.64185392541152, 74.56037821792484, 74.95234211729432, 74.94173508284392, 74.3113595239461, 73.61145545709896, 73.51149548378041, 73.40438382313327]","dist_present",56,42,"yes","yes",1680,NA,NA,NA,NA,"NR","NR","lp",NA,NA,NA,NA,NA,NA,"practice",2,"NR","in"
"30",2000.18489999999,44368.471900016,44368.471900016,17,17,"n",2,"['4', '8', '2', 'space']","y","#000000","no",400650.272899999,1,"neutral","psycho","psycho","psycho",0,"uniform",0,0,0,0,NA,0,0,NA,0,0,0,0,29,29,NA,NA,NA,NA,0,0,0,NA,29,0,29,73.2296414732588,"Fri Oct 22 15:08:06 2021","The main experiment item","yes","green","no","3","diamond",NA,"pinging_target_expectations 5.0.osexp","C:/Users/etp-cp-ping/Desktop/LocalPC-EXP",75,"no","mono","no",18,"no","white","no","yes",1050,NA,100,"psycho",29,0,29,"C:/Users/etp-cp-ping/Desktop/LocalPC-EXP/subject-6.csv","psycho",3,30,30,"Lentiform Loewenfeld","3.3.8","['vert', 'vert', 'hori', 'hori', 'hori', 'vert', 'vert', 'hori']","no",209,"None","yes",0,NA,2,"legacy",NA,1024,2,48000,-16,"experiment",6,"even","red","no",2,"circle",327344.8838,327364.023999999,327364.065599999,NA,330144.8867,NA,NA,73204.1267999994,1353.01989999971,NA,73204.1497999999,430320.9198,434321.142000001,NA,NA,NA,NA,1353.09869999946,331200.1929,NA,NA,430320.934700001,331573.3091,430320.871100001,"New experiment",19,"[0]","dist_present",56,34,"yes","yes",1680,NA,NA,NA,NA,"NR","NR","lp",NA,NA,NA,NA,NA,NA,"practice",3,"NR","in"
"31",1453.687199999,45822.159100015,45822.159100015,18,18,"n",2,"['4', '8', '2', 'space']","y","#000000","no",400650.272899999,1,"neutral","psycho","psycho","psycho",0,"uniform",1,0,0,0,NA,0,0,NA,0,0,0,0,30,30,NA,NA,NA,NA,0,0,0,NA,30,0,30,73.2296414732588,"Fri Oct 22 15:08:06 2021","The main experiment item","yes","red","no","2","circle",NA,"pinging_target_expectations 5.0.osexp","C:/Users/etp-cp-ping/Desktop/LocalPC-EXP",75,"no","mono","no",18,"no","white","no","yes",1050,NA,100,"psycho",30,0,30,"C:/Users/etp-cp-ping/Desktop/LocalPC-EXP/subject-6.csv","psycho",3,31,31,"Lentiform Loewenfeld","3.3.8","['vert', 'hori', 'vert', 'vert', 'vert', 'hori', 'hori', 'hori']","yes",109,"diamond","yes",0,NA,2,"legacy",NA,1024,2,48000,-16,"experiment",6,"even","green","no",1,"diamond",327344.8838,327364.023999999,327364.065599999,NA,330144.8867,NA,NA,73204.1267999994,1353.01989999971,NA,73204.1497999999,434351.815599999,437634.2205,NA,NA,NA,NA,1353.09869999946,331200.1929,NA,NA,434351.8301,331573.3091,434351.767799999,"New experiment",19,"[0]","dist_present",56,23,"yes","yes",1680,NA,NA,NA,NA,"NR","NR","lp",NA,NA,NA,NA,NA,NA,"practice",2,"NR","in"
"32",1618.6468999986,47440.8060000136,47440.8060000136,19,19,"n",2,"['4', '8', '2', 'space']","y","#000000","no",400650.272899999,1,"neutral","psycho","psycho","psycho",0,"uniform",1,0,0,0,NA,0,0,NA,0,0,0,0,31,31,NA,NA,NA,NA,0,0,0,NA,31,0,31,73.2296414732588,"Fri Oct 22 15:08:06 2021","The main experiment item","yes","red","no","6","circle",NA,"pinging_target_expectations 5.0.osexp","C:/Users/etp-cp-ping/Desktop/LocalPC-EXP",75,"no","mono","no",18,"no","white","no","yes",1050,NA,100,"psycho",31,0,31,"C:/Users/etp-cp-ping/Desktop/LocalPC-EXP/subject-6.csv","psycho",3,32,32,"Lentiform Loewenfeld","3.3.8","['hori', 'vert', 'hori', 'vert', 'vert', 'vert', 'hori', 'hori']","yes",109,"circles","yes",0,NA,2,"legacy",NA,1024,2,48000,-16,"experiment",6,"even","green","no",0,"diamond",327344.8838,327364.023999999,327364.065599999,NA,330144.8867,NA,NA,73204.1267999994,1353.01989999971,NA,73204.1497999999,437665.001400001,441330.131800001,NA,NA,NA,NA,1353.09869999946,331200.1929,NA,NA,437665.0157,331573.3091,437664.9511,"New experiment",19,"[0, 75.86965172409269, 74.3228007802492, 73.99762177641009, 73.90061929363385, 73.85243518407152, 74.02768428616196, 74.15887158569384, 74.39202742160693, 74.5821694508815, 73.56152853377094, 73.68779919693918, 73.66479175419991, 73.86533843865064, 73.63812916814227, 73.72525727029311, 73.83907812268791, 73.824115301167, 73.39080703086198, 73.98684583717797, 74.01463277122305, 77.72899447459741, 78.01499616397473, 78.90656412376065, 79.71150263509266, 79.38039136464288, 77.09300970902869, 76.34688956589825, 73.86451051138923, 73.86781018378981, 73.84342607644757, 73.52127820984666, 73.60555939617426, 74.18247857111054, 73.79055682711856, 74.17553337170659, 74.58856147841111, 73.83564454100676, 74.17709745675901, 73.98355889862206, 73.66421562617084, 73.94164103735802, 74.40086187048146, 73.27162695012488]","dist_present",56,17,"yes","yes",1680,NA,NA,NA,NA,"NR","NR","lp","Right",NA,"Right",NA,NA,NA,"practice",1,"NR","in"
"33",1589.76369999797,49030.5697000116,49030.5697000116,19,19,"n",2,"['4', '8', '2', 'space']","y","#000000","no",400650.272899999,1,"neutral","psycho","psycho","psycho",0,"uniform",0,0,0,0,NA,0,0,NA,0,0,0,0,32,32,NA,NA,NA,NA,0,0,0,NA,32,0,32,73.2296414732588,"Fri Oct 22 15:08:06 2021","The main experiment item","yes","green","no","None","circle",NA,"pinging_target_expectations 5.0.osexp","C:/Users/etp-cp-ping/Desktop/LocalPC-EXP",75,"no","mono","no",18,"no","white","no","yes",1050,NA,100,"psycho",32,0,32,"C:/Users/etp-cp-ping/Desktop/LocalPC-EXP/subject-6.csv","psycho",3,33,33,"Lentiform Loewenfeld","3.3.8","['vert', 'hori', 'hori', 'hori', 'vert', 'vert', 'vert', 'hori']","yes",109,"diamond","yes",0,NA,2,"legacy",NA,1024,2,48000,-16,"experiment",6,"even","red","no",2,"diamond",327344.8838,327364.023999999,327364.065599999,NA,330144.8867,NA,NA,73204.1267999994,1353.01989999971,NA,73204.1497999999,441360.843099999,445026.205499998,NA,NA,NA,NA,1353.09869999946,331200.1929,NA,NA,441360.857899999,331573.3091,441360.792899999,"New experiment",19,"[0, 73.35074574846371, 73.81270983247866, 73.4302237086814, 73.6918705632414, 73.69810217144314, 74.06840111973453, 73.5617316396012, 73.32620051611296, 73.42600428641782, 73.52203721371461, 74.0732878812548, 73.80356553311651, 74.4382503340434, 73.36590832196413, 74.31289578190842, 75.47084191750159, 75.22530781615919, 73.82202745984019, 73.33682903674124, 73.69620898161598, 73.46290567859656, 75.92006606072376, 75.64457363073426, 73.89683163759031, 74.27138242331606, 73.31859457064822, 73.48828358797972, 73.36768191287095, 73.42023728289142, 74.56036810821033, 73.59488112851945, 73.43628715753897, 73.44727008646736, 73.2373969766717, 73.30946654929693, 73.72144586760852, 75.42652171632133]","dist_absent",56,39,"yes","yes",1680,NA,NA,NA,NA,"NR","NR","lp",NA,"Left",NA,"Left",NA,NA,"practice",0,"NR","in"
"34",1474.70959999919,50505.2793000108,50505.2793000108,19,19,"n",2,"['4', '8', '2', 'space']","y","#000000","no",400650.272899999,1,"neutral","psycho","psycho","psycho",0,"uniform",0,0,0,0,NA,0,0,NA,0,0,0,0,33,33,NA,NA,NA,NA,0,0,0,NA,33,0,33,73.2296414732588,"Fri Oct 22 15:08:06 2021","The main experiment item","yes","green","no","None","circle",NA,"pinging_target_expectations 5.0.osexp","C:/Users/etp-cp-ping/Desktop/LocalPC-EXP",75,"no","mono","no",18,"no","white","no","yes",1050,NA,100,"psycho",33,0,33,"C:/Users/etp-cp-ping/Desktop/LocalPC-EXP/subject-6.csv","psycho",3,34,34,"Lentiform Loewenfeld","3.3.8","['hori', 'vert', 'vert', 'hori', 'hori', 'hori', 'vert', 'vert']","yes",109,"circles","yes",0,NA,2,"legacy",NA,1024,2,48000,-16,"experiment",6,"even","red","no",4,"diamond",327344.8838,327364.023999999,327364.065599999,NA,330144.8867,NA,NA,73204.1267999994,1353.01989999971,NA,73204.1497999999,445056.906400001,448562.163499999,NA,NA,NA,NA,1353.09869999946,331200.1929,NA,NA,445056.921200001,331573.3091,445056.855300001,"New experiment",19,"[0]","dist_absent",56,59,"yes","yes",1680,NA,NA,NA,NA,"NR","R","lp",NA,NA,NA,NA,NA,NA,"practice",2,"NR","in"
"35",1545.01300000271,52050.2923000135,52050.2923000135,20,20,"n",2,"['4', '8', '2', 'space']","y","#000000","no",449493.353099999,1,"neutral","psycho","psycho","psycho",0,"uniform",1,0,0,0,NA,0,0,NA,0,0,0,0,34,34,NA,NA,NA,NA,0,0,0,NA,34,0,34,73.2296414732588,"Fri Oct 22 15:08:06 2021","The main experiment item","yes","green","no","4","diamond",NA,"pinging_target_expectations 5.0.osexp","C:/Users/etp-cp-ping/Desktop/LocalPC-EXP",75,"no","mono","no",18,"no","white","no","yes",1050,NA,100,"psycho",34,0,34,"C:/Users/etp-cp-ping/Desktop/LocalPC-EXP/subject-6.csv","psycho",4,35,35,"Lentiform Loewenfeld","3.3.8","['hori', 'vert', 'hori', 'hori', 'vert', 'vert', 'hori', 'vert']","no",209,"None","yes",0,NA,2,"legacy",NA,1024,2,48000,-16,"experiment",6,"even","red","no",0,"circle",327344.8838,327364.023999999,327364.065599999,NA,330144.8867,NA,NA,73204.1267999994,1353.01989999971,NA,73204.1497999999,448592.8652,452050.223499999,NA,NA,NA,NA,1353.09869999946,331200.1929,NA,NA,448592.879799999,331573.3091,448592.8165,"New experiment",19,"[0]","dist_present",56,15,"yes","yes",1680,NA,NA,NA,NA,"NR","NR","lp",NA,NA,NA,NA,NA,NA,"practice",4,"NR","in"
"36",1471.16240000108,53521.4547000146,53521.4547000146,21,21,"n",2,"['4', '8', '2', 'space']","y","#000000","no",449493.353099999,1,"neutral","psycho","psycho","psycho",0,"uniform",1,0,0,0,NA,0,0,NA,0,0,0,0,35,35,NA,NA,NA,NA,0,0,0,NA,35,0,35,73.2296414732588,"Fri Oct 22 15:08:06 2021","The main experiment item","yes","red","no","3","diamond",NA,"pinging_target_expectations 5.0.osexp","C:/Users/etp-cp-ping/Desktop/LocalPC-EXP",75,"no","mono","no",18,"no","white","no","yes",1050,NA,100,"psycho",35,0,35,"C:/Users/etp-cp-ping/Desktop/LocalPC-EXP/subject-6.csv","psycho",4,36,36,"Lentiform Loewenfeld","3.3.8","['hori', 'hori', 'hori', 'vert', 'vert', 'hori', 'vert', 'vert']","no",209,"None","yes",0,NA,2,"legacy",NA,1024,2,48000,-16,"experiment",6,"even","green","no",7,"circle",327344.8838,327364.023999999,327364.065599999,NA,330144.8867,NA,NA,73204.1267999994,1353.01989999971,NA,73204.1497999999,452080.742999999,455442.173399999,NA,NA,NA,NA,1353.09869999946,331200.1929,NA,NA,452080.757700001,331573.3091,452080.693100001,"New experiment",19,"[0]","dist_present",56,84,"yes","yes",1680,NA,NA,NA,NA,"NR","NR","lp",NA,NA,NA,NA,NA,NA,"practice",0,"NR","in"
"37",1473.19549999887,54994.6502000134,54994.6502000134,21,21,"n",2,"['4', '8', '2', 'space']","y","#000000","no",449493.353099999,1,"neutral","psycho","psycho","psycho",0,"uniform",0,0,0,0,NA,0,0,NA,0,0,0,0,36,36,NA,NA,NA,NA,0,0,0,NA,36,0,36,73.2296414732588,"Fri Oct 22 15:08:06 2021","The main experiment item","yes","red","no","None","diamond",NA,"pinging_target_expectations 5.0.osexp","C:/Users/etp-cp-ping/Desktop/LocalPC-EXP",75,"no","mono","no",18,"no","white","no","yes",1050,NA,100,"psycho",36,0,36,"C:/Users/etp-cp-ping/Desktop/LocalPC-EXP/subject-6.csv","psycho",4,37,37,"Lentiform Loewenfeld","3.3.8","['hori', 'hori', 'hori', 'hori', 'vert', 'vert', 'vert', 'vert']","no",209,"None","yes",0,NA,2,"legacy",NA,1024,2,48000,-16,"experiment",6,"even","green","no",7,"circle",327344.8838,327364.023999999,327364.065599999,NA,330144.8867,NA,NA,73204.1267999994,1353.01989999971,NA,73204.1497999999,455473.210299999,458994.228700001,NA,NA,NA,NA,1353.09869999946,331200.1929,NA,NA,455473.2253,331573.3091,455473.1603,"New experiment",19,"[0]","dist_absent",56,89,"yes","yes",1680,NA,NA,NA,NA,"R","NR","lp",NA,"Right",NA,NA,NA,NA,"practice",7,"NR","in"
"38",945.324399999634,55939.9746000131,55939.9746000131,21,21,"n",2,"['4', '8', '2', 'space']","y","#000000","no",449493.353099999,1,"neutral","psycho","psycho","psycho",0,"uniform",0,0,0,0,NA,0,0,NA,0,0,0,0,37,37,NA,NA,NA,NA,0,0,0,NA,37,0,37,73.2296414732588,"Fri Oct 22 15:08:06 2021","The main experiment item","yes","green","no","None","circle",NA,"pinging_target_expectations 5.0.osexp","C:/Users/etp-cp-ping/Desktop/LocalPC-EXP",75,"no","mono","no",18,"no","white","no","yes",1050,NA,100,"psycho",37,0,37,"C:/Users/etp-cp-ping/Desktop/LocalPC-EXP/subject-6.csv","psycho",4,38,38,"Lentiform Loewenfeld","3.3.8","['vert', 'vert', 'hori', 'vert', 'vert', 'hori', 'hori', 'hori']","yes",109,"circles","yes",0,NA,2,"legacy",NA,1024,2,48000,-16,"experiment",6,"even","red","no",1,"diamond",327344.8838,327364.023999999,327364.065599999,NA,330144.8867,NA,NA,73204.1267999994,1353.01989999971,NA,73204.1497999999,459024.797999999,462018.1791,NA,NA,NA,NA,1353.09869999946,331200.1929,NA,NA,459024.812700001,331573.3091,459024.748600001,"New experiment",19,"[0]","dist_absent",56,29,"yes","yes",1680,NA,NA,NA,NA,"NR","R","lp",NA,"Left",NA,NA,NA,NA,"practice",7,"R","in"
"39",2000.53889999981,57940.5135000129,57940.5135000129,21,21,"n",2,"['4', '8', '2', 'space']","y","#000000","no",449493.353099999,1,"neutral","psycho","psycho","psycho",0,"uniform",0,0,0,0,NA,0,0,NA,0,0,0,0,38,38,NA,NA,NA,NA,0,0,0,NA,38,0,38,73.2296414732588,"Fri Oct 22 15:08:06 2021","The main experiment item","yes","red","no","2","circle",NA,"pinging_target_expectations 5.0.osexp","C:/Users/etp-cp-ping/Desktop/LocalPC-EXP",75,"no","mono","no",18,"no","white","no","yes",1050,NA,100,"psycho",38,0,38,"C:/Users/etp-cp-ping/Desktop/LocalPC-EXP/subject-6.csv","psycho",4,39,39,"Lentiform Loewenfeld","3.3.8","['hori', 'vert', 'vert', 'hori', 'hori', 'vert', 'hori', 'vert']","yes",109,"diamond","yes",0,NA,2,"legacy",NA,1024,2,48000,-16,"experiment",6,"even","green","no",0,"diamond",327344.8838,327364.023999999,327364.065599999,NA,330144.8867,NA,NA,73204.1267999994,1353.01989999971,NA,73204.1497999999,462048.808899999,465869.4192,NA,NA,NA,NA,1353.09869999946,331200.1929,NA,NA,462048.8234,331573.3091,462048.7593,"New experiment",19,"[0]","dist_present",56,13,"yes","yes",1680,NA,NA,NA,NA,"NR","NR","lp","Left",NA,"Left",NA,NA,NA,"practice",1,"NR","in"
"40",1996.84930000152,59937.3628000144,59937.3628000144,21,21,"n",2,"['4', '8', '2', 'space']","y","#000000","no",449493.353099999,1,"neutral","psycho","psycho","psycho",0,"uniform",0,0,0,0,NA,0,0,NA,0,0,0,0,39,39,NA,NA,NA,NA,0,0,0,NA,39,0,39,73.2296414732588,"Fri Oct 22 15:08:06 2021","The main experiment item","yes","red","no","5","diamond",NA,"pinging_target_expectations 5.0.osexp","C:/Users/etp-cp-ping/Desktop/LocalPC-EXP",75,"no","mono","no",18,"no","white","no","yes",1050,NA,100,"psycho",39,0,39,"C:/Users/etp-cp-ping/Desktop/LocalPC-EXP/subject-6.csv","psycho",4,40,40,"Lentiform Loewenfeld","3.3.8","['vert', 'hori', 'hori', 'vert', 'hori', 'vert', 'vert', 'hori']","yes",109,"diamond","yes",0,NA,2,"legacy",NA,1024,2,48000,-16,"experiment",6,"even","green","no",3,"circle",327344.8838,327364.023999999,327364.065599999,NA,330144.8867,NA,NA,73204.1267999994,1353.01989999971,NA,73204.1497999999,465899.742099999,469682.253800001,NA,NA,NA,NA,1353.09869999946,331200.1929,NA,NA,465899.756499999,331573.3091,465899.693399999,"New experiment",19,"[0]","dist_present",56,46,"yes","yes",1680,NA,NA,NA,NA,"NR","NR","lp",NA,NA,NA,NA,NA,NA,"practice",0,"NR","in"
"41",1685.5634000022,61622.9262000166,61622.9262000166,22,22,"n",2,"['4', '8', '2', 'space']","y","#000000","no",449493.353099999,1,"neutral","psycho","psycho","psycho",0,"uniform",1,0,0,0,NA,0,0,NA,0,0,0,0,40,40,NA,NA,NA,NA,0,0,0,NA,40,0,40,73.2296414732588,"Fri Oct 22 15:08:06 2021","The main experiment item","yes","red","no","4","diamond",NA,"pinging_target_expectations 5.0.osexp","C:/Users/etp-cp-ping/Desktop/LocalPC-EXP",75,"no","mono","no",18,"no","white","no","yes",1050,NA,100,"psycho",40,0,40,"C:/Users/etp-cp-ping/Desktop/LocalPC-EXP/subject-6.csv","psycho",4,41,41,"Lentiform Loewenfeld","3.3.8","['vert', 'hori', 'hori', 'hori', 'vert', 'vert', 'vert', 'hori']","yes",109,"diamond","yes",0,NA,2,"legacy",NA,1024,2,48000,-16,"experiment",6,"even","green","no",3,"circle",327344.8838,327364.023999999,327364.065599999,NA,330144.8867,NA,NA,73204.1267999994,1353.01989999971,NA,73204.1497999999,469714.799099998,473362.232700001,NA,NA,NA,NA,1353.09869999946,331200.1929,NA,NA,469714.814200001,331573.3091,469714.748900002,"New experiment",19,"[0, 79.04383961791878, 82.2613609857676, 81.52869715304516, 82.15122722468678, 79.16011610611892, 74.30863599737043]","dist_present",56,45,"yes","yes",1680,NA,NA,NA,NA,"R","NR","lp",NA,"Left",NA,NA,NA,NA,"practice",3,"NR","in"
"42",1473.73899999727,63096.6652000138,63096.6652000138,23,23,"n",2,"['4', '8', '2', 'space']","y","#000000","no",474059.352100001,1,"neutral","psycho","psycho","psycho",0,"uniform",1,0,0,0,NA,0,0,NA,0,0,0,0,41,41,NA,NA,NA,NA,0,0,0,NA,41,0,41,73.2296414732588,"Fri Oct 22 15:08:06 2021","The main experiment item","yes","green","no","3","circle",NA,"pinging_target_expectations 5.0.osexp","C:/Users/etp-cp-ping/Desktop/LocalPC-EXP",75,"no","mono","no",18,"no","white","no","yes",1050,NA,100,"psycho",41,0,41,"C:/Users/etp-cp-ping/Desktop/LocalPC-EXP/subject-6.csv","psycho",5,42,42,"Lentiform Loewenfeld","3.3.8","['vert', 'hori', 'hori', 'vert', 'hori', 'vert', 'vert', 'hori']","no",209,"None","yes",0,NA,2,"legacy",NA,1024,2,48000,-16,"experiment",6,"even","red","no",7,"diamond",327344.8838,327364.023999999,327364.065599999,NA,330144.8867,NA,NA,73204.1267999994,1353.01989999971,NA,73204.1497999999,473392.7487,476466.294500002,NA,NA,NA,NA,1353.09869999946,331200.1929,NA,NA,473392.763399999,331573.3091,473392.699299999,"New experiment",19,"[0]","dist_present",56,84,"yes","yes",1680,NA,NA,NA,NA,"NR","NR","lp",NA,NA,NA,NA,NA,NA,"practice",3,"R","in"
"43",1586.20800000068,64682.8732000145,64682.8732000145,24,24,"n",2,"['4', '8', '2', 'space']","y","#000000","no",474059.352100001,1,"neutral","psycho","psycho","psycho",0,"uniform",1,0,0,0,NA,0,0,NA,0,0,0,0,42,42,NA,NA,NA,NA,0,0,0,NA,42,0,42,73.2296414732588,"Fri Oct 22 15:08:06 2021","The main experiment item","yes","green","no","None","circle",NA,"pinging_target_expectations 5.0.osexp","C:/Users/etp-cp-ping/Desktop/LocalPC-EXP",75,"no","mono","no",18,"no","white","no","yes",1050,NA,100,"psycho",42,0,42,"C:/Users/etp-cp-ping/Desktop/LocalPC-EXP/subject-6.csv","psycho",5,43,43,"Lentiform Loewenfeld","3.3.8","['vert', 'hori', 'vert', 'hori', 'vert', 'hori', 'hori', 'vert']","no",209,"None","yes",0,NA,2,"legacy",NA,1024,2,48000,-16,"experiment",6,"even","red","no",3,"diamond",327344.8838,327364.023999999,327364.065599999,NA,330144.8867,NA,NA,73204.1267999994,1353.01989999971,NA,73204.1497999999,476497.1578,480034.237,NA,NA,NA,NA,1353.09869999946,331200.1929,NA,NA,476497.1725,331573.3091,476497.107700001,"New experiment",19,"[0]","dist_absent",56,49,"yes","yes",1680,NA,NA,NA,NA,"NR","NR","lp",NA,"Left",NA,NA,NA,NA,"practice",7,"NR","in"
"44",1054.80049999827,65737.6737000128,65737.6737000128,25,25,"n",2,"['4', '8', '2', 'space']","y","#000000","no",474059.352100001,1,"neutral","psycho","psycho","psycho",0,"uniform",1,0,0,0,NA,0,0,NA,0,0,0,0,43,43,NA,NA,NA,NA,0,0,0,NA,43,0,43,73.2296414732588,"Fri Oct 22 15:08:06 2021","The main experiment item","yes","red","no","1","circle",NA,"pinging_target_expectations 5.0.osexp","C:/Users/etp-cp-ping/Desktop/LocalPC-EXP",75,"no","mono","no",18,"no","white","no","yes",1050,NA,100,"psycho",43,0,43,"C:/Users/etp-cp-ping/Desktop/LocalPC-EXP/subject-6.csv","psycho",5,44,44,"Lentiform Loewenfeld","3.3.8","['vert', 'vert', 'hori', 'hori', 'vert', 'hori', 'hori', 'vert']","no",209,"None","yes",0,NA,2,"legacy",NA,1024,2,48000,-16,"experiment",6,"even","green","no",0,"diamond",327344.8838,327364.023999999,327364.065599999,NA,330144.8867,NA,NA,73204.1267999994,1353.01989999971,NA,73204.1497999999,480064.766399999,482834.2233,NA,NA,NA,NA,1353.09869999946,331200.1929,NA,NA,480064.780799999,331573.3091,480064.717699999,"New experiment",19,"[0]","dist_present",56,12,"yes","yes",1680,NA,NA,NA,NA,"NR","NR","lp","Left",NA,NA,NA,NA,NA,"practice",3,"NR","in"
"45",1987.16950000013,67724.8432000129,67724.8432000129,25,25,"n",2,"['4', '8', '2', 'space']","y","#000000","no",474059.352100001,1,"neutral","psycho","psycho","psycho",0,"uniform",0,0,0,0,NA,0,0,NA,0,0,0,0,44,44,NA,NA,NA,NA,0,0,0,NA,44,0,44,73.2296414732588,"Fri Oct 22 15:08:06 2021","The main experiment item","yes","red","no","2","diamond",NA,"pinging_target_expectations 5.0.osexp","C:/Users/etp-cp-ping/Desktop/LocalPC-EXP",75,"no","mono","no",18,"no","white","no","yes",1050,NA,100,"psycho",44,0,44,"C:/Users/etp-cp-ping/Desktop/LocalPC-EXP/subject-6.csv","psycho",5,45,45,"Lentiform Loewenfeld","3.3.8","['vert', 'hori', 'hori', 'vert', 'vert', 'vert', 'hori', 'hori']","no",209,"None","yes",0,NA,2,"legacy",NA,1024,2,48000,-16,"experiment",6,"even","green","no",3,"circle",327344.8838,327364.023999999,327364.065599999,NA,330144.8867,NA,NA,73204.1267999994,1353.01989999971,NA,73204.1497999999,482864.832700001,486802.224899999,NA,NA,NA,NA,1353.09869999946,331200.1929,NA,NA,482864.847199999,331573.3091,482864.7838,"New experiment",19,"[0, 73.32403042318798, 73.87080619772283, 73.27296723247312, 74.09953189758728, 73.62043103794034, 73.87123152930947, 75.99034373727291, 74.44001209290482, 73.55675373824322, 76.90077291231874, 73.99379926116688, 73.24618747411317, 73.38861215171491, 73.79871272590057, 74.08969160648496, 73.77548202518278, 73.99278590324164, 74.53654093838362, 73.27772326269213, 73.76536514000713, 74.26937929378259, 73.23011825558734, 73.32187215310246, 73.42540892817472, 73.25822929323968]","dist_present",56,43,"yes","yes",1680,NA,NA,NA,NA,"NR","NR","lp",NA,NA,NA,NA,NA,NA,"practice",0,"NR","in"
"46",1401.99070000014,69126.8339000131,69126.8339000131,26,26,"n",2,"['4', '8', '2', 'space']","y","#000000","no",474059.352100001,1,"neutral","psycho","psycho","psycho",0,"uniform",1,0,0,0,NA,0,0,NA,0,0,0,0,45,45,NA,NA,NA,NA,0,0,0,NA,45,0,45,73.2296414732588,"Fri Oct 22 15:08:06 2021","The main experiment item","yes","red","no","None","diamond",NA,"pinging_target_expectations 5.0.osexp","C:/Users/etp-cp-ping/Desktop/LocalPC-EXP",75,"no","mono","no",18,"no","white","no","yes",1050,NA,100,"psycho",45,0,45,"C:/Users/etp-cp-ping/Desktop/LocalPC-EXP/subject-6.csv","psycho",5,46,46,"Lentiform Loewenfeld","3.3.8","['hori', 'hori', 'vert', 'vert', 'vert', 'vert', 'hori', 'hori']","no",209,"None","yes",0,NA,2,"legacy",NA,1024,2,48000,-16,"experiment",6,"even","green","no",5,"circle",327344.8838,327364.023999999,327364.065599999,NA,330144.8867,NA,NA,73204.1267999994,1353.01989999971,NA,73204.1497999999,486832.857900001,490306.293500002,NA,NA,NA,NA,1353.09869999946,331200.1929,NA,NA,486832.8726,331573.3091,486832.809399999,"New experiment",19,"[0]","dist_absent",56,69,"yes","yes",1680,NA,NA,NA,NA,"NR","NR","lp",NA,"Right",NA,NA,NA,NA,"practice",3,"NR","in"
"47",1822.54230000038,70949.3762000134,70949.3762000134,26,26,"n",2,"['4', '8', '2', 'space']","y","#000000","no",474059.352100001,1,"neutral","psycho","psycho","psycho",0,"uniform",0,0,0,0,NA,0,0,NA,0,0,0,0,46,46,NA,NA,NA,NA,0,0,0,NA,46,0,46,73.2296414732588,"Fri Oct 22 15:08:06 2021","The main experiment item","yes","red","no","None","circle",NA,"pinging_target_expectations 5.0.osexp","C:/Users/etp-cp-ping/Desktop/LocalPC-EXP",75,"no","mono","no",18,"no","white","no","yes",1050,NA,100,"psycho",46,0,46,"C:/Users/etp-cp-ping/Desktop/LocalPC-EXP/subject-6.csv","psycho",5,47,47,"Lentiform Loewenfeld","3.3.8","['vert', 'vert', 'hori', 'hori', 'hori', 'vert', 'hori', 'vert']","yes",109,"diamond","yes",0,NA,2,"legacy",NA,1024,2,48000,-16,"experiment",6,"even","green","no",0,"diamond",327344.8838,327364.023999999,327364.065599999,NA,330144.8867,NA,NA,73204.1267999994,1353.01989999971,NA,73204.1497999999,490336.946899999,494098.253100001,NA,NA,NA,NA,1353.09869999946,331200.1929,NA,NA,490336.961600002,331573.3091,490336.896199999,"New experiment",19,"[0, 73.45910563160609, 73.50482691686798]","dist_absent",56,19,"yes","yes",1680,NA,NA,NA,NA,"NR","R","lp",NA,NA,NA,NA,NA,NA,"practice",5,"NR","in"
"48",1636.41489999648,72585.7911000099,72585.7911000099,27,27,"n",2,"['4', '8', '2', 'space']","y","#000000","no",474059.352100001,1,"neutral","psycho","psycho","psycho",0,"uniform",1,0,0,0,NA,0,0,NA,0,0,0,0,47,47,NA,NA,NA,NA,0,0,0,NA,47,0,47,73.2296414732588,"Fri Oct 22 15:08:06 2021","The main experiment item","yes","red","no","None","diamond",NA,"pinging_target_expectations 5.0.osexp","C:/Users/etp-cp-ping/Desktop/LocalPC-EXP",75,"no","mono","no",18,"no","white","no","yes",1050,NA,100,"psycho",47,0,47,"C:/Users/etp-cp-ping/Desktop/LocalPC-EXP/subject-6.csv","psycho",5,48,48,"Lentiform Loewenfeld","3.3.8","['vert', 'vert', 'vert', 'hori', 'hori', 'hori', 'vert', 'hori']","no",209,"None","yes",0,NA,2,"legacy",NA,1024,2,48000,-16,"experiment",6,"even","green","no",1,"circle",327344.8838,327364.023999999,327364.065599999,NA,330144.8867,NA,NA,73204.1267999994,1353.01989999971,NA,73204.1497999999,494128.956500001,497394.305000002,NA,NA,NA,NA,1353.09869999946,331200.1929,NA,NA,494128.970999998,331573.3091,494128.906400001,"New experiment",19,"[0]","dist_absent",56,29,"yes","yes",1680,NA,NA,NA,NA,"NR","R","lp",NA,"Left",NA,NA,NA,NA,"practice",0,"NR","in"
"49",1363.89259999851,73949.6837000084,73949.6837000084,28,28,"n",2,"['4', '8', '2', 'space']","y","#000000","no",474059.352100001,1,"neutral","psycho","psycho","psycho",0,"uniform",1,0,0,0,NA,0,0,NA,0,0,0,0,48,48,NA,NA,NA,NA,0,0,0,NA,48,0,48,73.2296414732588,"Fri Oct 22 15:08:06 2021","The main experiment item","yes","green","no","6","diamond",NA,"pinging_target_expectations 5.0.osexp","C:/Users/etp-cp-ping/Desktop/LocalPC-EXP",75,"no","mono","no",18,"no","white","no","yes",1050,NA,100,"psycho",48,0,48,"C:/Users/etp-cp-ping/Desktop/LocalPC-EXP/subject-6.csv","psycho",5,49,49,"Lentiform Loewenfeld","3.3.8","['hori', 'vert', 'hori', 'vert', 'vert', 'vert', 'hori', 'hori']","no",209,"None","yes",0,NA,2,"legacy",NA,1024,2,48000,-16,"experiment",6,"even","red","no",1,"circle",327344.8838,327364.023999999,327364.065599999,NA,330144.8867,NA,NA,73204.1267999994,1353.01989999971,NA,73204.1497999999,497426.484,500770.298899999,NA,NA,NA,NA,1353.09869999946,331200.1929,NA,NA,497426.498699999,331573.3091,497426.434299999,"New experiment",19,"[0]","dist_present",56,27,"yes","yes",1680,NA,NA,NA,NA,"R","NR","lp",NA,NA,NA,NA,NA,NA,"practice",1,"NR","in"
"50",1491.19480000087,75440.8785000093,75440.8785000093,29,29,"n",2,"['4', '8', '2', 'space']","y","#000000","no",474059.352100001,1,"neutral","psycho","psycho","psycho",0,"uniform",1,0,0,0,NA,0,0,NA,0,0,0,0,49,49,NA,NA,NA,NA,0,0,0,NA,49,0,49,73.2296414732588,"Fri Oct 22 15:08:06 2021","The main experiment item","yes","red","no","1","diamond",NA,"pinging_target_expectations 5.0.osexp","C:/Users/etp-cp-ping/Desktop/LocalPC-EXP",75,"no","mono","no",18,"no","white","no","yes",1050,NA,100,"psycho",49,0,49,"C:/Users/etp-cp-ping/Desktop/LocalPC-EXP/subject-6.csv","psycho",5,50,50,"Lentiform Loewenfeld","3.3.8","['hori', 'vert', 'vert', 'hori', 'hori', 'hori', 'vert', 'vert']","yes",109,"diamond","yes",0,NA,2,"legacy",NA,1024,2,48000,-16,"experiment",6,"even","green","no",7,"circle",327344.8838,327364.023999999,327364.065599999,NA,330144.8867,NA,NA,73204.1267999994,1353.01989999971,NA,73204.1497999999,500800.9662,504338.238,NA,NA,NA,NA,1353.09869999946,331200.1929,NA,NA,500800.981299999,331573.3091,500800.915600001,"New experiment",19,"[0, 73.59418383298855, 76.51245883790737, 75.96340038625401]","dist_present",56,82,"yes","yes",1680,NA,NA,NA,NA,"NR","NR","lp",NA,NA,NA,NA,NA,NA,"practice",1,"R","in"
"51",1609.3830999998,77050.2616000091,77050.2616000091,29,29,"n",2,"['4', '8', '2', 'space']","y","#000000","no",474059.352100001,1,"neutral","psycho","psycho","psycho",0,"uniform",0,0,0,0,NA,0,0,NA,0,0,0,0,50,50,NA,NA,NA,NA,0,0,0,NA,50,0,50,73.2296414732588,"Fri Oct 22 15:08:06 2021","The main experiment item","yes","green","no","0","circle",NA,"pinging_target_expectations 5.0.osexp","C:/Users/etp-cp-ping/Desktop/LocalPC-EXP",75,"no","mono","no",18,"no","white","no","yes",1050,NA,100,"psycho",50,0,50,"C:/Users/etp-cp-ping/Desktop/LocalPC-EXP/subject-6.csv","psycho",5,51,51,"Lentiform Loewenfeld","3.3.8","['hori', 'vert', 'vert', 'hori', 'vert', 'hori', 'hori', 'vert']","yes",109,"circles","yes",0,NA,2,"legacy",NA,1024,2,48000,-16,"experiment",6,"even","red","no",3,"diamond",327344.8838,327364.023999999,327364.065599999,NA,330144.8867,NA,NA,73204.1267999994,1353.01989999971,NA,73204.1497999999,504368.893800001,507602.269700001,NA,NA,NA,NA,1353.09869999946,331200.1929,NA,NA,504368.908500001,331573.3091,504368.844600001,"New experiment",19,"[0]","dist_present",56,41,"yes","yes",1680,NA,NA,NA,NA,"NR","NR","lp",NA,"Left",NA,NA,NA,NA,"practice",7,"NR","in"
"52",2000.9322000005,79051.1938000096,79051.1938000096,29,29,"n",2,"['4', '8', '2', 'space']","y","#000000","no",474059.352100001,1,"neutral","psycho","psycho","psycho",0,"uniform",0,0,0,0,NA,0,0,NA,0,0,0,0,51,51,NA,NA,NA,NA,0,0,0,NA,51,0,51,73.2296414732588,"Fri Oct 22 15:08:06 2021","The main experiment item","yes","red","no","4","diamond",NA,"pinging_target_expectations 5.0.osexp","C:/Users/etp-cp-ping/Desktop/LocalPC-EXP",75,"no","mono","no",18,"no","white","no","yes",1050,NA,100,"psycho",51,0,51,"C:/Users/etp-cp-ping/Desktop/LocalPC-EXP/subject-6.csv","psycho",5,52,52,"Lentiform Loewenfeld","3.3.8","['hori', 'vert', 'vert', 'hori', 'hori', 'hori', 'vert', 'vert']","no",209,"None","yes",0,NA,2,"legacy",NA,1024,2,48000,-16,"experiment",6,"even","green","no",6,"circle",327344.8838,327364.023999999,327364.065599999,NA,330144.8867,NA,NA,73204.1267999994,1353.01989999971,NA,73204.1497999999,507633.359200001,511611.918300001,NA,NA,NA,NA,1353.09869999946,331200.1929,NA,NA,507633.373600002,331573.3091,507633.310900001,"New experiment",19,"[0]","dist_present",56,75,"yes","yes",1680,NA,NA,NA,NA,"NR","NR","lp",NA,"Right",NA,"Right",NA,NA,"practice",3,"NR","in"
"53",1128.09340000246,80179.2872000121,80179.2872000121,30,30,"n",2,"['4', '8', '2', 'space']","y","#000000","no",512637.723700001,1,"neutral","psycho","psycho","psycho",0,"uniform",1,0,0,0,NA,0,0,NA,0,0,0,0,52,52,NA,NA,NA,NA,0,0,0,NA,52,0,52,73.2296414732588,"Fri Oct 22 15:08:06 2021","The main experiment item","yes","red","no","7","diamond",NA,"pinging_target_expectations 5.0.osexp","C:/Users/etp-cp-ping/Desktop/LocalPC-EXP",75,"no","mono","no",18,"no","white","no","yes",1050,NA,100,"psycho",52,0,52,"C:/Users/etp-cp-ping/Desktop/LocalPC-EXP/subject-6.csv","psycho",7,53,53,"Lentiform Loewenfeld","3.3.8","['hori', 'vert', 'hori', 'hori', 'vert', 'vert', 'hori', 'vert']","yes",109,"circles","yes",0,NA,2,"legacy",NA,1024,2,48000,-16,"experiment",6,"even","green","no",4,"circle",327344.8838,327364.023999999,327364.065599999,NA,330144.8867,NA,NA,73204.1267999994,1353.01989999971,NA,73204.1497999999,511642.517600001,514786.239100002,NA,NA,NA,NA,1353.09869999946,331200.1929,NA,NA,511642.5342,331573.3091,511642.339499998,"New experiment",19,"[0, 74.07085282209945, 75.96326908929773, 78.63957445776735, 82.74957236188213, 82.56498789779357, 82.19245959964823, 74.7821594749246, 76.82200580675479, 101.17882992504211, 115.40200506680415, 140.50115876829867, 164.62810975494304, 187.67643264827572, 214.0232091963564, 239.531543735553, 267.2224640408936, 302.8812217636991, 336.2788861713862, 365.8394025484844, 399.0348724774886, 434.7769431871355, 468.0413260030361, 501.6488169106084, 540.5023681001551, 581.4004458252182, 617.2321034851933, 662.8436202802977, 700.2480535628471, 735.8230014533207, 776.8565680008741, 822.7741239522612, 935.1453673983017, 999.1579473169027, 1044.66949045481, 1088.860151505295, 1129.0140969657828, 1163.321918872292, 1184.8922124468495, 1210.2374587473223, 1384.2370000525402, 1466.4544278080693]","dist_present",56,58,"yes","no",1680,NA,NA,NA,NA,"NR","NR","lp","Right",NA,NA,NA,NA,NA,"practice",6,"NR","in"
"54",1330.97020000062,81510.2574000127,81510.2574000127,31,31,"n",2,"['4', '8', '2', 'space']","y","#000000","no",512637.723700001,1,"neutral","psycho","psycho","psycho",0,"uniform",1,0,0,0,NA,0,0,NA,0,0,0,0,53,53,NA,NA,NA,NA,0,0,0,NA,53,0,53,73.2296414732588,"Fri Oct 22 15:08:06 2021","The main experiment item","yes","green","no","None","circle",NA,"pinging_target_expectations 5.0.osexp","C:/Users/etp-cp-ping/Desktop/LocalPC-EXP",75,"no","mono","no",18,"no","white","no","yes",1050,NA,100,"psycho",53,0,53,"C:/Users/etp-cp-ping/Desktop/LocalPC-EXP/subject-6.csv","psycho",7,54,54,"Lentiform Loewenfeld","3.3.8","['hori', 'hori', 'vert', 'vert', 'hori', 'vert', 'hori', 'vert']","no",209,"None","yes",0,NA,2,"legacy",NA,1024,2,48000,-16,"experiment",6,"even","red","no",6,"diamond",327344.8838,327364.023999999,327364.065599999,NA,330144.8867,NA,NA,73204.1267999994,1353.01989999971,NA,73204.1497999999,514817.234800001,517954.383699998,NA,NA,NA,NA,1353.09869999946,331200.1929,NA,NA,514817.2495,331573.3091,514817.185600001,"New experiment",19,"[0]","dist_absent",56,79,"yes","yes",1680,NA,NA,NA,NA,"NR","NR","lp",NA,"Right",NA,"Right",NA,NA,"practice",4,"NR","in"
"55",1279.19640000258,82789.4538000153,82789.4538000153,32,32,"n",2,"['4', '8', '2', 'space']","y","#000000","no",512637.723700001,1,"neutral","psycho","psycho","psycho",0,"uniform",1,0,0,0,NA,0,0,NA,0,0,0,0,54,54,NA,NA,NA,NA,0,0,0,NA,54,0,54,73.2296414732588,"Fri Oct 22 15:08:06 2021","The main experiment item","yes","green","no","3","diamond",NA,"pinging_target_expectations 5.0.osexp","C:/Users/etp-cp-ping/Desktop/LocalPC-EXP",75,"no","mono","no",18,"no","white","no","yes",1050,NA,100,"psycho",54,0,54,"C:/Users/etp-cp-ping/Desktop/LocalPC-EXP/subject-6.csv","psycho",7,55,55,"Lentiform Loewenfeld","3.3.8","['hori', 'vert', 'hori', 'vert', 'hori', 'vert', 'hori', 'vert']","yes",109,"circles","yes",0,NA,2,"legacy",NA,1024,2,48000,-16,"experiment",6,"even","red","no",5,"circle",327344.8838,327364.023999999,327364.065599999,NA,330144.8867,NA,NA,73204.1267999994,1353.01989999971,NA,73204.1497999999,517985.215600002,520962.291899999,NA,NA,NA,NA,1353.09869999946,331200.1929,NA,NA,517985.232399998,331573.3091,517985.166300001,"New experiment",19,"[0]","dist_present",56,64,"yes","yes",1680,NA,NA,NA,NA,"NR","NR","lp",NA,NA,NA,NA,NA,NA,"practice",6,"NR","in"
"56",763.188299999456,83552.6421000147,83552.6421000147,32,32,"n",2,"['4', '8', '2', 'space']","y","#000000","no",512637.723700001,1,"neutral","psycho","psycho","psycho",0,"uniform",0,0,0,0,NA,0,0,NA,0,0,0,0,55,55,NA,NA,NA,NA,0,0,0,NA,55,0,55,73.2296414732588,"Fri Oct 22 15:08:06 2021","The main experiment item","yes","green","no","5","diamond",NA,"pinging_target_expectations 5.0.osexp","C:/Users/etp-cp-ping/Desktop/LocalPC-EXP",75,"no","mono","no",18,"no","white","no","yes",1050,NA,100,"psycho",55,0,55,"C:/Users/etp-cp-ping/Desktop/LocalPC-EXP/subject-6.csv","psycho",7,56,56,"Lentiform Loewenfeld","3.3.8","['hori', 'hori', 'vert', 'vert', 'hori', 'hori', 'vert', 'vert']","yes",109,"diamond","yes",0,NA,2,"legacy",NA,1024,2,48000,-16,"experiment",6,"even","red","no",0,"circle",327344.8838,327364.023999999,327364.065599999,NA,330144.8867,NA,NA,73204.1267999994,1353.01989999971,NA,73204.1497999999,520992.870999999,523778.231200002,NA,NA,NA,NA,1353.09869999946,331200.1929,NA,NA,520992.885899999,331573.3091,520992.821100001,"New experiment",19,"[0]","dist_present",56,16,"yes","yes",1680,NA,NA,NA,NA,"NR","NR","lp","Right",NA,NA,NA,NA,NA,"practice",5,"NR","in"
"57",1436.43320000055,1436.43320000055,84989.0753000153,1,33,"n",2,"['4', '8', '2', 'space']","y","#000000","no",512637.723700001,2,"bias","psycho","psycho","psycho",0,"uniform",1,0,1,1,NA,1,0,NA,0,0,1,0,56,56,NA,NA,NA,NA,0,1,1,NA,56,1,56,73.2296414732588,"Fri Oct 22 15:08:06 2021","The main experiment item","yes","green","no","0","circle",NA,"pinging_target_expectations 5.0.osexp","C:/Users/etp-cp-ping/Desktop/LocalPC-EXP",75,"no","mono","no",18,"no","white","no","yes",1050,NA,2,"psycho",0,1,0,"C:/Users/etp-cp-ping/Desktop/LocalPC-EXP/subject-6.csv","psycho",0,57,1,"Lentiform Loewenfeld","3.3.8","['hori', 'hori', 'vert', 'vert', 'vert', 'hori', 'hori', 'vert']","no",202,"None","no",0,NA,2,"legacy",NA,1024,2,48000,-16,"experiment",6,"even","red","no",1,"diamond",327344.8838,574655.377300001,574655.5138,NA,617062.332599999,NA,NA,73204.1267999994,1353.01989999971,524314.032300001,73204.1497999999,619707.6137,623186.345400001,NA,NA,NA,NA,1353.09869999946,619170.9845,523808.305999999,NA,619707.629600001,619703.2956,619707.569400001,"New experiment",19,"[0]","dist_present",56,21,"yes","yes",1680,20.9029763286896,-38.0885630159958,"more toward","False","NR","NR","lp",NA,"Left",NA,NA,1,2,"first",999,"NR","in"
"58",1117.19739999902,2553.63059999957,86106.2727000143,1,33,"n",2,"['4', '8', '2', 'space']","y","#000000","no",624157.604399999,2,"bias","psycho","psycho","psycho",0,"uniform",0,0,1,1,NA,1,0,NA,0,0,1,0,57,57,NA,NA,NA,NA,0,1,1,NA,57,1,57,73.2296414732588,"Fri Oct 22 15:08:06 2021","The main experiment item","yes","green","no","None","diamond",NA,"pinging_target_expectations 5.0.osexp","C:/Users/etp-cp-ping/Desktop/LocalPC-EXP",75,"no","mono","no",18,"no","white","no","yes",1050,NA,2,"psycho",1,1,1,"C:/Users/etp-cp-ping/Desktop/LocalPC-EXP/subject-6.csv","psycho",1,58,2,"Lentiform Loewenfeld","3.3.8","['hori', 'hori', 'vert', 'hori', 'vert', 'vert', 'hori', 'vert']","no",202,"None","no",0,NA,2,"legacy",NA,1024,2,48000,-16,"experiment",6,"even","red","yes",2,"circle",327344.8838,574655.377300001,574655.5138,NA,617062.332599999,NA,NA,73204.1267999994,1353.01989999971,524314.032300001,73204.1497999999,623219.8479,626098.379899999,NA,NA,NA,NA,1353.09869999946,619170.9845,523808.305999999,NA,623219.862499998,619703.2956,623219.801200001,"New experiment",19,"[0, 81.218310286424, 115.05624591529676, 153.26267272426995, 190.34221877719256, 231.53118560407086, 273.90031652693625, 316.7818459251021, 366.5670603603271, 415.3099446491883, 464.363644234683, 520.8589138759777, 572.4949983725828, 629.6108158253776, 700.1580689973046, 767.8860127385909, 842.2118589038755, 912.3007751454863, 964.6590206343956, 1026.4400176574534, 1229.2675752883408, 1290.0370198271114, 1426.7723250776294, 1518.2672959924023]","dist_absent",56,39,"yes","no",1680,NA,NA,"no hp","True","NR","NR","lp",NA,"Left",NA,"Left",0,NA,"first",1,"NR","ex"
"59",1606.5998999984,4160.23049999797,87712.8726000127,2,34,"n",2,"['4', '8', '2', 'space']","y","#000000","no",624157.604399999,2,"bias","psycho","psycho","psycho",0,"uniform",1,0,1,1,NA,1,0,NA,0,0,1,0,58,58,NA,NA,NA,NA,0,1,1,NA,58,1,58,73.2296414732588,"Fri Oct 22 15:08:06 2021","The main experiment item","yes","red","no","0","diamond",NA,"pinging_target_expectations 5.0.osexp","C:/Users/etp-cp-ping/Desktop/LocalPC-EXP",75,"no","mono","no",18,"no","white","no","yes",1050,NA,2,"psycho",2,1,2,"C:/Users/etp-cp-ping/Desktop/LocalPC-EXP/subject-6.csv","psycho",1,59,3,"Lentiform Loewenfeld","3.3.8","['vert', 'hori', 'vert', 'vert', 'vert', 'hori', 'hori', 'hori']","yes",102,"circles","no",0,NA,2,"legacy",NA,1024,2,48000,-16,"experiment",6,"even","green","no",7,"circle",327344.8838,574655.377300001,574655.5138,NA,617062.332599999,NA,NA,73204.1267999994,1353.01989999971,524314.032300001,73204.1497999999,626129.238500001,629682.397299999,NA,NA,NA,NA,1353.09869999946,619170.9845,523808.305999999,NA,626129.2531,619703.2956,626129.187999999,"New experiment",19,"[0]","dist_present",56,81,"yes","yes",1680,33.3650388286896,-29.7056880159959,"more toward","False","NR","NR","hp",NA,"Right",NA,NA,3,2,"first",2,"NR","in"
"60",1108.03830000083,5268.2687999988,88820.9109000135,3,35,"n",2,"['4', '8', '2', 'space']","y","#000000","no",624157.604399999,2,"bias","psycho","psycho","psycho",0,"uniform",1,0,1,1,NA,1,0,NA,0,0,1,0,59,59,NA,NA,NA,NA,0,1,1,NA,59,1,59,73.2296414732588,"Fri Oct 22 15:08:06 2021","The main experiment item","yes","red","no","None","diamond",NA,"pinging_target_expectations 5.0.osexp","C:/Users/etp-cp-ping/Desktop/LocalPC-EXP",75,"no","mono","no",18,"no","white","no","yes",1050,NA,2,"psycho",3,1,3,"C:/Users/etp-cp-ping/Desktop/LocalPC-EXP/subject-6.csv","psycho",1,60,4,"Lentiform Loewenfeld","3.3.8","['vert', 'hori', 'vert', 'hori', 'hori', 'vert', 'hori', 'vert']","no",202,"None","no",0,NA,2,"legacy",NA,1024,2,48000,-16,"experiment",6,"even","green","no",1,"circle",327344.8838,574655.377300001,574655.5138,NA,617062.332599999,NA,NA,73204.1267999994,1353.01989999971,524314.032300001,73204.1497999999,629713.4577,632930.460899999,NA,NA,NA,NA,1353.09869999946,619170.9845,523808.305999999,NA,629713.472300002,619703.2956,629713.4085,"New experiment",19,"[0]","dist_absent",56,29,"yes","yes",1680,19.4082263286895,-26.2993130159959,"more toward","False","NR","NR","lp",NA,"Left",NA,NA,1,NA,"first",7,"NR","in"
"61",1010.57399999979,6278.84279999859,89831.4849000133,4,36,"n",2,"['4', '8', '2', 'space']","y","#000000","no",624157.604399999,2,"bias","psycho","psycho","psycho",0,"uniform",1,0,1,1,NA,1,0,NA,0,0,1,0,60,60,NA,NA,NA,NA,0,1,1,NA,60,1,60,73.2296414732588,"Fri Oct 22 15:08:06 2021","The main experiment item","yes","red","no","6","diamond",NA,"pinging_target_expectations 5.0.osexp","C:/Users/etp-cp-ping/Desktop/LocalPC-EXP",75,"no","mono","no",18,"no","white","no","yes",1050,NA,2,"psycho",4,1,4,"C:/Users/etp-cp-ping/Desktop/LocalPC-EXP/subject-6.csv","psycho",1,61,5,"Lentiform Loewenfeld","3.3.8","['hori', 'vert', 'hori', 'vert', 'hori', 'vert', 'vert', 'hori']","yes",102,"circles","no",0,NA,2,"legacy",NA,1024,2,48000,-16,"experiment",6,"even","green","yes",2,"circle",327344.8838,574655.377300001,574655.5138,NA,617062.332599999,NA,NA,73204.1267999994,1353.01989999971,524314.032300001,73204.1497999999,632961.204499999,635586.454200002,NA,NA,NA,NA,1353.09869999946,619170.9845,523808.305999999,NA,632961.218799999,619703.2956,632961.1553,"New experiment",19,"[0]","dist_present",56,37,"yes","yes",1680,-1.88189867131044,-12.4828130159958,"more away","False","NR","NR","lp",NA,NA,NA,NA,0,4,"first",1,"NR","ex"
"62",730.549299998558,7009.39209999715,90562.0342000119,5,37,"n",2,"['4', '8', '2', 'space']","y","#000000","no",624157.604399999,2,"bias","psycho","psycho","psycho",0,"uniform",1,0,1,1,NA,1,0,NA,0,0,1,0,61,61,NA,NA,NA,NA,0,1,1,NA,61,1,61,73.2296414732588,"Fri Oct 22 15:08:06 2021","The main experiment item","yes","green","no","5","circle",NA,"pinging_target_expectations 5.0.osexp","C:/Users/etp-cp-ping/Desktop/LocalPC-EXP",75,"no","mono","no",18,"no","white","no","yes",1050,NA,2,"psycho",5,1,5,"C:/Users/etp-cp-ping/Desktop/LocalPC-EXP/subject-6.csv","psycho",1,62,6,"Lentiform Loewenfeld","3.3.8","['hori', 'hori', 'vert', 'vert', 'hori', 'vert', 'hori', 'vert']","yes",102,"diamond","no",0,NA,2,"legacy",NA,1024,2,48000,-16,"experiment",6,"even","red","yes",2,"diamond",327344.8838,574655.377300001,574655.5138,NA,617062.332599999,NA,NA,73204.1267999994,1353.01989999971,524314.032300001,73204.1497999999,635618.833,638098.442400002,NA,NA,NA,NA,1353.09869999946,619170.9845,523808.305999999,NA,635618.8477,619703.2956,635618.7823,"New experiment",19,"[0]","dist_present",56,36,"yes","yes",1680,0.108101328689529,-6.31437551599579,"more away","False","R","NR","hp",NA,NA,NA,NA,0,-3,"first",2,"NR","ex"
"63",1507.16549999919,8516.55759999633,92069.1997000111,6,38,"n",2,"['4', '8', '2', 'space']","y","#000000","no",624157.604399999,2,"bias","psycho","psycho","psycho",0,"uniform",1,0,1,1,NA,1,0,NA,0,0,1,0,62,62,NA,NA,NA,NA,0,1,1,NA,62,1,62,73.2296414732588,"Fri Oct 22 15:08:06 2021","The main experiment item","yes","green","no","None","circle",NA,"pinging_target_expectations 5.0.osexp","C:/Users/etp-cp-ping/Desktop/LocalPC-EXP",75,"no","mono","no",18,"no","white","no","yes",1050,NA,2,"psycho",6,1,6,"C:/Users/etp-cp-ping/Desktop/LocalPC-EXP/subject-6.csv","psycho",1,63,7,"Lentiform Loewenfeld","3.3.8","['hori', 'hori', 'hori', 'hori', 'vert', 'vert', 'vert', 'vert']","yes",102,"circles","no",0,NA,2,"legacy",NA,1024,2,48000,-16,"experiment",6,"even","red","no",0,"diamond",327344.8838,574655.377300001,574655.5138,NA,617062.332599999,NA,NA,73204.1267999994,1353.01989999971,524314.032300001,73204.1497999999,638129.392300001,641490.3973,NA,NA,NA,NA,1353.09869999946,619170.9845,523808.305999999,NA,638129.406600001,619703.2956,638129.3425,"New experiment",19,"[0]","dist_absent",56,19,"yes","yes",1680,10.0607263286897,-16.1267505159958,"more away","False","NR","NR","hp",NA,NA,NA,NA,2,NA,"first",2,"R","in"
"64",1145.96600000001,9662.52359999635,93215.1657000111,6,38,"n",2,"['4', '8', '2', 'space']","y","#000000","no",624157.604399999,2,"bias","psycho","psycho","psycho",0,"uniform",0,0,1,1,NA,1,0,NA,0,0,1,0,63,63,NA,NA,NA,NA,0,1,1,NA,63,1,63,73.2296414732588,"Fri Oct 22 15:08:06 2021","The main experiment item","yes","green","yes","2","diamond",NA,"pinging_target_expectations 5.0.osexp","C:/Users/etp-cp-ping/Desktop/LocalPC-EXP",75,"no","mono","no",18,"no","white","no","yes",1050,NA,2,"psycho",7,1,7,"C:/Users/etp-cp-ping/Desktop/LocalPC-EXP/subject-6.csv","psycho",1,64,8,"Lentiform Loewenfeld","3.3.8","['hori', 'hori', 'vert', 'hori', 'vert', 'vert', 'vert', 'hori']","no",202,"None","no",0,NA,2,"legacy",NA,1024,2,48000,-16,"experiment",6,"even","red","no",6,"circle",327344.8838,574655.377300001,574655.5138,NA,617062.332599999,NA,NA,73204.1267999994,1353.01989999971,524314.032300001,73204.1497999999,641521.257299999,644338.416499999,NA,NA,NA,NA,1353.09869999946,619170.9845,523808.305999999,NA,641521.271900001,619703.2956,641521.2063,"New experiment",19,"[0]","dist_present",56,73,"yes","yes",1680,9.66385132868967,-35.7623755159958,"more away","False","NR","NR","lp",NA,NA,NA,NA,4,0,"first",0,"NR","in"
"65",823.526100000949,10486.0496999973,94038.691800012,6,38,"n",2,"['4', '8', '2', 'space']","y","#000000","no",624157.604399999,2,"bias","psycho","psycho","psycho",0,"uniform",0,0,1,1,NA,1,0,NA,0,0,1,0,64,64,NA,NA,NA,NA,0,1,1,NA,64,1,64,73.2296414732588,"Fri Oct 22 15:08:06 2021","The main experiment item","yes","green","no","3","circle",NA,"pinging_target_expectations 5.0.osexp","C:/Users/etp-cp-ping/Desktop/LocalPC-EXP",75,"no","mono","no",18,"no","white","no","yes",1050,NA,2,"psycho",8,1,8,"C:/Users/etp-cp-ping/Desktop/LocalPC-EXP/subject-6.csv","psycho",1,65,9,"Lentiform Loewenfeld","3.3.8","['vert', 'hori', 'vert', 'vert', 'hori', 'hori', 'hori', 'vert']","yes",102,"diamond","no",0,NA,2,"legacy",NA,1024,2,48000,-16,"experiment",6,"even","red","no",0,"diamond",327344.8838,574655.377300001,574655.5138,NA,617062.332599999,NA,NA,73204.1267999994,1353.01989999971,524314.032300001,73204.1497999999,644369.3389,646882.3667,NA,NA,NA,NA,1353.09869999946,619170.9845,523808.305999999,NA,644369.353800001,619703.2956,644369.288999998,"New experiment",19,"[0]","dist_present",56,14,"yes","yes",1680,13.3825388286896,-16.8926255159958,"more away","False","NR","NR","lp","Left",NA,NA,NA,2,-1,"first",6,"NR","in"
"66",1263.6587999987,11749.708499996,95302.3506000107,6,38,"n",2,"['4', '8', '2', 'space']","y","#000000","no",624157.604399999,2,"bias","psycho","psycho","psycho",0,"uniform",0,0,1,1,NA,1,0,NA,0,0,1,0,65,65,NA,NA,NA,NA,0,1,1,NA,65,1,65,73.2296414732588,"Fri Oct 22 15:08:06 2021","The main experiment item","yes","red","no","3","diamond",NA,"pinging_target_expectations 5.0.osexp","C:/Users/etp-cp-ping/Desktop/LocalPC-EXP",75,"no","mono","no",18,"no","white","no","yes",1050,NA,2,"psycho",9,1,9,"C:/Users/etp-cp-ping/Desktop/LocalPC-EXP/subject-6.csv","psycho",1,66,10,"Lentiform Loewenfeld","3.3.8","['hori', 'vert', 'hori', 'vert', 'hori', 'vert', 'hori', 'vert']","no",202,"None","no",0,NA,2,"legacy",NA,1024,2,48000,-16,"experiment",6,"even","green","yes",2,"circle",327344.8838,574655.377300001,574655.5138,NA,617062.332599999,NA,NA,73204.1267999994,1353.01989999971,524314.032300001,73204.1497999999,646913.2722,650338.367699998,NA,NA,NA,NA,1353.09869999946,619170.9845,523808.305999999,NA,646913.286899999,619703.2956,646913.222800002,"New experiment",19,"[0]","dist_present",56,34,"yes","yes",1680,18.5493513286895,-4.99631301599578,"more away","False","NR","R","lp",NA,NA,NA,NA,0,-1,"first",0,"NR","ex"
"67",1682.76609999884,13432.4745999948,96985.1167000096,6,38,"n",2,"['4', '8', '2', 'space']","y","#000000","no",624157.604399999,2,"bias","psycho","psycho","psycho",0,"uniform",0,0,1,1,NA,1,0,NA,0,0,1,0,66,66,NA,NA,NA,NA,0,1,1,NA,66,1,66,73.2296414732588,"Fri Oct 22 15:08:06 2021","The main experiment item","yes","red","no","5","circle",NA,"pinging_target_expectations 5.0.osexp","C:/Users/etp-cp-ping/Desktop/LocalPC-EXP",75,"no","mono","no",18,"no","white","no","yes",1050,NA,2,"psycho",10,1,10,"C:/Users/etp-cp-ping/Desktop/LocalPC-EXP/subject-6.csv","psycho",1,67,11,"Lentiform Loewenfeld","3.3.8","['vert', 'hori', 'hori', 'hori', 'vert', 'vert', 'hori', 'vert']","yes",102,"diamond","no",0,NA,2,"legacy",NA,1024,2,48000,-16,"experiment",6,"even","green","no",4,"diamond",327344.8838,574655.377300001,574655.5138,NA,617062.332599999,NA,NA,73204.1267999994,1353.01989999971,524314.032300001,73204.1497999999,650369.252600001,654162.4906,NA,NA,NA,NA,1353.09869999946,619170.9845,523808.305999999,NA,650369.267499998,619703.2956,650369.202400001,"New experiment",19,"[0]","dist_present",56,56,"yes","yes",1680,20.9103513286896,-23.6761880159958,"more toward","False","NR","NR","hp","Right",NA,NA,NA,-2,-3,"first",2,"NR","in"
"68",1184.11869999906,14616.5932999939,98169.2354000086,7,39,"n",2,"['4', '8', '2', 'space']","y","#000000","no",654814.7632,2,"bias","psycho","psycho","psycho",0,"uniform",1,0,1,1,NA,1,0,NA,0,0,1,0,67,67,NA,NA,NA,NA,0,1,1,NA,67,1,67,73.2296414732588,"Fri Oct 22 15:08:06 2021","The main experiment item","yes","green","no","1","circle",NA,"pinging_target_expectations 5.0.osexp","C:/Users/etp-cp-ping/Desktop/LocalPC-EXP",75,"no","mono","no",18,"no","white","no","yes",1050,NA,2,"psycho",11,1,11,"C:/Users/etp-cp-ping/Desktop/LocalPC-EXP/subject-6.csv","psycho",2,68,12,"Lentiform Loewenfeld","3.3.8","['hori', 'hori', 'vert', 'hori', 'vert', 'hori', 'vert', 'vert']","yes",102,"circles","no",0,NA,2,"legacy",NA,1024,2,48000,-16,"experiment",6,"even","red","no",3,"diamond",327344.8838,574655.377300001,574655.5138,NA,617062.332599999,NA,NA,73204.1267999994,1353.01989999971,524314.032300001,73204.1497999999,654193.219100002,657202.401300001,NA,NA,NA,NA,1353.09869999946,619170.9845,523808.305999999,NA,654193.233999999,619703.2956,654193.170300001,"New experiment",19,"[0, 74.74685078088778, 73.74603524830367, 74.84790639555305, 74.7265101443896, 75.14099037035993, 76.13574992730375, 76.03223988194475, 75.87840256026713]","dist_present",56,42,"yes","yes",1680,13.7284763286896,-17.0335630159958,"more away","False","NR","NR","lp",NA,NA,NA,NA,-1,1,"first",4,"NR","in"
"69",863.276699998067,15479.869999992,99032.5121000067,8,40,"n",2,"['4', '8', '2', 'space']","y","#000000","no",654814.7632,2,"bias","psycho","psycho","psycho",0,"uniform",1,0,1,1,NA,1,0,NA,0,0,1,0,68,68,NA,NA,NA,NA,0,1,1,NA,68,1,68,73.2296414732588,"Fri Oct 22 15:08:06 2021","The main experiment item","yes","green","no","5","circle",NA,"pinging_target_expectations 5.0.osexp","C:/Users/etp-cp-ping/Desktop/LocalPC-EXP",75,"no","mono","no",18,"no","white","no","yes",1050,NA,2,"psycho",12,1,12,"C:/Users/etp-cp-ping/Desktop/LocalPC-EXP/subject-6.csv","psycho",2,69,13,"Lentiform Loewenfeld","3.3.8","['hori', 'hori', 'vert', 'vert', 'hori', 'hori', 'vert', 'vert']","no",202,"None","no",0,NA,2,"legacy",NA,1024,2,48000,-16,"experiment",6,"even","red","no",3,"diamond",327344.8838,574655.377300001,574655.5138,NA,617062.332599999,NA,NA,73204.1267999994,1353.01989999971,524314.032300001,73204.1497999999,657233.440299999,660082.393600001,NA,NA,NA,NA,1353.09869999946,619170.9845,523808.305999999,NA,657233.455199999,619703.2956,657233.3908,"New experiment",19,"[0]","dist_present",56,46,"yes","yes",1680,2.23753882868961,-16.8681880159958,"more away","False","R","NR","lp",NA,NA,NA,NA,-1,-3,"first",3,"NR","in"
"70",1366.60060000222,16846.4705999942,100399.112700009,9,41,"n",2,"['4', '8', '2', 'space']","y","#000000","no",654814.7632,2,"bias","psycho","psycho","psycho",0,"uniform",1,0,1,1,NA,1,0,NA,0,0,1,0,69,69,NA,NA,NA,NA,0,1,1,NA,69,1,69,73.2296414732588,"Fri Oct 22 15:08:06 2021","The main experiment item","yes","red","no","6","circle",NA,"pinging_target_expectations 5.0.osexp","C:/Users/etp-cp-ping/Desktop/LocalPC-EXP",75,"no","mono","no",18,"no","white","no","yes",1050,NA,2,"psycho",13,1,13,"C:/Users/etp-cp-ping/Desktop/LocalPC-EXP/subject-6.csv","psycho",2,70,14,"Lentiform Loewenfeld","3.3.8","['vert', 'vert', 'hori', 'hori', 'vert', 'vert', 'hori', 'hori']","yes",102,"diamond","no",0,NA,2,"legacy",NA,1024,2,48000,-16,"experiment",6,"even","green","no",3,"diamond",327344.8838,574655.377300001,574655.5138,NA,617062.332599999,NA,NA,73204.1267999994,1353.01989999971,524314.032300001,73204.1497999999,660113.2583,663378.4185,NA,NA,NA,NA,1353.09869999946,619170.9845,523808.305999999,NA,660113.273300001,619703.2956,660113.209899999,"New experiment",19,"[0]","dist_present",56,47,"yes","yes",1680,8.06597632868961,-8.2443755159958,"more away","False","R","NR","lp",NA,NA,NA,NA,-1,4,"first",3,"R","in"
"71",896.933200001484,17743.4037999957,101296.04590001,10,42,"n",2,"['4', '8', '2', 'space']","y","#000000","no",654814.7632,2,"bias","psycho","psycho","psycho",0,"uniform",1,0,1,1,NA,1,0,NA,0,0,1,0,70,70,NA,NA,NA,NA,0,1,1,NA,70,1,70,73.2296414732588,"Fri Oct 22 15:08:06 2021","The main experiment item","yes","green","no","4","diamond",NA,"pinging_target_expectations 5.0.osexp","C:/Users/etp-cp-ping/Desktop/LocalPC-EXP",75,"no","mono","no",18,"no","white","no","yes",1050,NA,2,"psycho",14,1,14,"C:/Users/etp-cp-ping/Desktop/LocalPC-EXP/subject-6.csv","psycho",2,71,15,"Lentiform Loewenfeld","3.3.8","['hori', 'vert', 'vert', 'hori', 'hori', 'hori', 'vert', 'vert']","yes",102,"circles","no",0,NA,2,"legacy",NA,1024,2,48000,-16,"experiment",6,"even","red","no",0,"circle",327344.8838,574655.377300001,574655.5138,NA,617062.332599999,NA,NA,73204.1267999994,1353.01989999971,524314.032300001,73204.1497999999,663410.700699998,666114.380800002,NA,NA,NA,NA,1353.09869999946,619170.9845,523808.305999999,NA,663410.715800001,619703.2956,663410.651099999,"New experiment",19,"[0]","dist_present",56,15,"yes","yes",1680,7.45741382868964,-9.8650005159958,"more away","False","NR","NR","lp",NA,NA,NA,NA,2,-2,"first",3,"R","in"
"72",848.574399998994,18591.9781999947,102144.620300009,11,43,"n",2,"['4', '8', '2', 'space']","y","#000000","no",654814.7632,2,"bias","psycho","psycho","psycho",0,"uniform",1,0,1,1,NA,1,0,NA,0,0,1,0,71,71,NA,NA,NA,NA,0,1,1,NA,71,1,71,73.2296414732588,"Fri Oct 22 15:08:06 2021","The main experiment item","yes","red","no","3","diamond",NA,"pinging_target_expectations 5.0.osexp","C:/Users/etp-cp-ping/Desktop/LocalPC-EXP",75,"no","mono","no",18,"no","white","no","yes",1050,NA,2,"psycho",15,1,15,"C:/Users/etp-cp-ping/Desktop/LocalPC-EXP/subject-6.csv","psycho",2,72,16,"Lentiform Loewenfeld","3.3.8","['hori', 'hori', 'vert', 'hori', 'vert', 'vert', 'vert', 'hori']","yes",102,"diamond","no",0,NA,2,"legacy",NA,1024,2,48000,-16,"experiment",6,"even","green","no",7,"circle",327344.8838,574655.377300001,574655.5138,NA,617062.332599999,NA,NA,73204.1267999994,1353.01989999971,524314.032300001,73204.1497999999,666145.1433,668978.517200001,NA,NA,NA,NA,1353.09869999946,619170.9845,523808.305999999,NA,666145.1576,619703.2956,666145.094200001,"New experiment",19,"[0]","dist_present",56,84,"yes","yes",1680,5.90385132868967,-7.76556301599574,"more away","False","NR","NR","lp",NA,NA,NA,NA,3,-1,"first",0,"NR","in"
"73",681.211699997191,19273.1898999918,102825.832000007,12,44,"n",2,"['4', '8', '2', 'space']","y","#000000","no",669493.594,2,"bias","psycho","psycho","psycho",0,"uniform",1,0,1,1,NA,1,0,NA,0,0,1,0,72,72,NA,NA,NA,NA,0,1,1,NA,72,1,72,73.2296414732588,"Fri Oct 22 15:08:06 2021","The main experiment item","yes","red","no","None","diamond",NA,"pinging_target_expectations 5.0.osexp","C:/Users/etp-cp-ping/Desktop/LocalPC-EXP",75,"no","mono","no",18,"no","white","no","yes",1050,NA,2,"psycho",16,1,16,"C:/Users/etp-cp-ping/Desktop/LocalPC-EXP/subject-6.csv","psycho",3,73,17,"Lentiform Loewenfeld","3.3.8","['vert', 'hori', 'vert', 'hori', 'hori', 'vert', 'hori', 'vert']","no",202,"None","no",0,NA,2,"legacy",NA,1024,2,48000,-16,"experiment",6,"even","green","no",3,"circle",327344.8838,574655.377300001,574655.5138,NA,617062.332599999,NA,NA,73204.1267999994,1353.01989999971,524314.032300001,73204.1497999999,669009.423399999,671538.394800002,NA,NA,NA,NA,1353.09869999946,619170.9845,523808.305999999,NA,669009.438100002,619703.2956,669009.374199999,"New experiment",19,"[0, 78.78196942229505, 98.16193743969836, 127.48520395152842, 153.49361452421132, 177.50606004455076, 210.6281321053302, 243.30656816716137, 271.6441734651054, 297.11135179627877, 336.8261745765657, 375.18959458487967, 407.25678603970607, 447.4376923523524, 475.22740909893537, 514.488857894378, 548.6652845343199, 582.9672328737655, 626.0474749440247, 665.8449811835223, 701.011158363682, 743.4512879593133, 775.4422755467237, 812.6439872416457, 843.5526905596878, 891.3458035144788, 926.9885728499228, 960.4125669941709, 1070.3525009496002, 1114.905335057707, 1168.5937894458655, 1203.5265888213687, 1237.3617537205168, 1273.3466361256164, 1280.3657498298699, 1361.0638417066161, 1424.100275533782]","dist_absent",56,49,"yes","no",1680,2.91097632868961,-19.9578130159958,"more away","False","NR","NR","lp",NA,"Left",NA,NA,-1,NA,"first",7,"NR","in"
"74",569.26270000264,19842.4525999945,103395.094700009,13,45,"n",2,"['4', '8', '2', 'space']","y","#000000","no",669493.594,2,"bias","psycho","psycho","psycho",0,"uniform",1,0,1,1,NA,1,0,NA,0,0,1,0,73,73,NA,NA,NA,NA,0,1,1,NA,73,1,73,73.2296414732588,"Fri Oct 22 15:08:06 2021","The main experiment item","yes","red","no","0","circle",NA,"pinging_target_expectations 5.0.osexp","C:/Users/etp-cp-ping/Desktop/LocalPC-EXP",75,"no","mono","no",18,"no","white","no","yes",1050,NA,2,"psycho",17,1,17,"C:/Users/etp-cp-ping/Desktop/LocalPC-EXP/subject-6.csv","psycho",3,74,18,"Lentiform Loewenfeld","3.3.8","['hori', 'hori', 'hori', 'vert', 'vert', 'vert', 'vert', 'hori']","yes",102,"diamond","no",0,NA,2,"legacy",NA,1024,2,48000,-16,"experiment",6,"even","green","no",5,"diamond",327344.8838,574655.377300001,574655.5138,NA,617062.332599999,NA,NA,73204.1267999994,1353.01989999971,524314.032300001,73204.1497999999,671571.048199999,674002.396200001,NA,NA,NA,NA,1353.09869999946,619170.9845,523808.305999999,NA,671571.062800002,619703.2956,671570.998200001,"New experiment",19,"[0]","dist_present",56,61,"yes","yes",1680,14.9277888286895,-12.1485630159958,"more away","False","NR","NR","lp",NA,"Right",NA,NA,-3,2,"first",3,"NR","in"
"75",774.98679999914,20617.4393999936,104170.081500008,14,46,"n",2,"['4', '8', '2', 'space']","y","#000000","no",669493.594,2,"bias","psycho","psycho","psycho",0,"uniform",1,0,1,1,NA,1,0,NA,0,0,1,0,74,74,NA,NA,NA,NA,0,1,1,NA,74,1,74,73.2296414732588,"Fri Oct 22 15:08:06 2021","The main experiment item","yes","green","no","6","diamond",NA,"pinging_target_expectations 5.0.osexp","C:/Users/etp-cp-ping/Desktop/LocalPC-EXP",75,"no","mono","no",18,"no","white","no","yes",1050,NA,2,"psycho",18,1,18,"C:/Users/etp-cp-ping/Desktop/LocalPC-EXP/subject-6.csv","psycho",3,75,19,"Lentiform Loewenfeld","3.3.8","['hori', 'vert', 'hori', 'hori', 'vert', 'hori', 'vert', 'vert']","no",202,"None","no",0,NA,2,"legacy",NA,1024,2,48000,-16,"experiment",6,"even","red","yes",2,"circle",327344.8838,574655.377300001,574655.5138,NA,617062.332599999,NA,NA,73204.1267999994,1353.01989999971,524314.032300001,73204.1497999999,674033.284500001,676914.477999999,NA,NA,NA,NA,1353.09869999946,619170.9845,523808.305999999,NA,674033.299400002,619703.2956,674033.234499999,"New experiment",19,"[0, 73.36482241489783]","dist_present",56,37,"yes","yes",1680,9.02453882868957,0.637874484004185,"more away","False","NR","NR","lp",NA,NA,NA,NA,0,4,"first",5,"NR","ex"
"76",730.999299998046,21348.4386999917,104901.080800006,15,47,"n",2,"['4', '8', '2', 'space']","y","#000000","no",669493.594,2,"bias","psycho","psycho","psycho",0,"uniform",1,0,1,1,NA,1,0,NA,0,0,1,0,75,75,NA,NA,NA,NA,0,1,1,NA,75,1,75,73.2296414732588,"Fri Oct 22 15:08:06 2021","The main experiment item","yes","green","no","None","circle",NA,"pinging_target_expectations 5.0.osexp","C:/Users/etp-cp-ping/Desktop/LocalPC-EXP",75,"no","mono","no",18,"no","white","no","yes",1050,NA,2,"psycho",19,1,19,"C:/Users/etp-cp-ping/Desktop/LocalPC-EXP/subject-6.csv","psycho",3,76,20,"Lentiform Loewenfeld","3.3.8","['vert', 'hori', 'hori', 'vert', 'vert', 'hori', 'vert', 'hori']","yes",102,"diamond","no",0,NA,2,"legacy",NA,1024,2,48000,-16,"experiment",6,"even","red","yes",2,"diamond",327344.8838,574655.377300001,574655.5138,NA,617062.332599999,NA,NA,73204.1267999994,1353.01989999971,524314.032300001,73204.1497999999,676945.344200001,679458.401200001,NA,NA,NA,NA,1353.09869999946,619170.9845,523808.305999999,NA,676945.3588,619703.2956,676945.292799999,"New experiment",19,"[0]","dist_absent",56,39,"yes","yes",1680,27.4831013286895,-3.97237551599575,"more toward","False","R","NR","hp",NA,"Left",NA,"Left",0,NA,"first",2,"NR","ex"
"77",575.510300001013,21923.9489999927,105476.591100007,15,47,"n",2,"['4', '8', '2', 'space']","y","#000000","no",669493.594,2,"bias","psycho","psycho","psycho",0,"uniform",0,0,1,1,NA,1,0,NA,0,0,1,0,76,76,NA,NA,NA,NA,0,1,1,NA,76,1,76,73.2296414732588,"Fri Oct 22 15:08:06 2021","The main experiment item","yes","green","no","None","diamond",NA,"pinging_target_expectations 5.0.osexp","C:/Users/etp-cp-ping/Desktop/LocalPC-EXP",75,"no","mono","no",18,"no","white","no","yes",1050,NA,2,"psycho",20,1,20,"C:/Users/etp-cp-ping/Desktop/LocalPC-EXP/subject-6.csv","psycho",3,77,21,"Lentiform Loewenfeld","3.3.8","['vert', 'hori', 'vert', 'vert', 'hori', 'hori', 'vert', 'hori']","no",202,"None","no",0,NA,2,"legacy",NA,1024,2,48000,-16,"experiment",6,"even","red","yes",2,"circle",327344.8838,574655.377300001,574655.5138,NA,617062.332599999,NA,NA,73204.1267999994,1353.01989999971,524314.032300001,73204.1497999999,679489.113899999,682018.384800002,NA,NA,NA,NA,1353.09869999946,619170.9845,523808.305999999,NA,679489.128199999,619703.2956,679489.063000001,"New experiment",19,"[0]","dist_absent",56,39,"yes","yes",1680,33.0940388286895,7.53418698400417,"more toward","False","R","R","hp",NA,"Left",NA,"Left",0,NA,"first",2,"R","ex"
"78",1001.07039999787,22925.0193999906,106477.661500005,16,48,"n",2,"['4', '8', '2', 'space']","y","#000000","no",669493.594,2,"bias","psycho","psycho","psycho",0,"uniform",1,0,1,1,NA,1,0,NA,0,0,1,0,77,77,NA,NA,NA,NA,0,1,1,NA,77,1,77,73.2296414732588,"Fri Oct 22 15:08:06 2021","The main experiment item","yes","red","no","1","circle",NA,"pinging_target_expectations 5.0.osexp","C:/Users/etp-cp-ping/Desktop/LocalPC-EXP",75,"no","mono","no",18,"no","white","no","yes",1050,NA,2,"psycho",21,1,21,"C:/Users/etp-cp-ping/Desktop/LocalPC-EXP/subject-6.csv","psycho",3,78,22,"Lentiform Loewenfeld","3.3.8","['hori', 'vert', 'vert', 'hori', 'vert', 'vert', 'hori', 'hori']","no",202,"None","no",0,NA,2,"legacy",NA,1024,2,48000,-16,"experiment",6,"even","green","no",5,"diamond",327344.8838,574655.377300001,574655.5138,NA,617062.332599999,NA,NA,73204.1267999994,1353.01989999971,524314.032300001,73204.1497999999,682050.995400001,684962.4061,NA,NA,NA,NA,1353.09869999946,619170.9845,523808.305999999,NA,682051.010499999,619703.2956,682050.9442,"New experiment",19,"[0]","dist_present",56,62,"yes","yes",1680,26.2881638286896,0.768499484004184,"more toward","False","NR","NR","hp",NA,NA,NA,NA,-3,1,"first",2,"R","in"
