"","RT","RT_bl","RT_tot","acc_bl","acc_tot","background","bidi","blink_onset","block_cnt","block_type","canvas_backend","clock_backend","color_backend","compensation","coordinates","correct","count_block_loop","count_block_seq","count_block_settings","count_check_session","count_drift_correct","count_end_loop","count_end_seq","count_exp_settings","count_experiment","count_feedback","count_instructions","count_log_variables","count_logger","count_new_inline_script","count_new_pygaze_drift_correct","count_new_pygaze_start_recording","count_new_pygaze_stop_recording","count_pygaze","count_start_recording","count_stop_recording","count_test_location","count_trial","count_trial_loop","count_trial_seq","d_eye","datetime","description","disable_garbage_collection","dist_color","dist_high","dist_loc","dist_shape","empty_column","experiment_file","experiment_path","eye_threshold_length","font_bold","font_family","font_italic","font_size","font_underline","foreground","form_clicks","fullscreen","height","high_loc","high_prob_loc","keyboard_backend","live_row","live_row_block_loop","live_row_trial_loop","logfile","mouse_backend","nr_blinks","nr_trials","nr_trials_bl","opensesame_codename","opensesame_version","orient_list_trial","ping","ping_trigger","ping_type","practice","repeat_cycle","response","round_decimals","sampler_backend","session_nr","sound_buf_size","sound_channels","sound_freq","sound_sample_size","start","subject_nr","subject_parity","target_color","target_high","target_loc","target_shape","time_block_loop","time_block_seq","time_block_settings","time_check_session","time_drift_correct","time_end_loop","time_end_seq","time_exp_settings","time_experiment","time_feedback","time_instructions","time_log_variables","time_logger","time_new_inline_script","time_new_pygaze_drift_correct","time_new_pygaze_start_recording","time_new_pygaze_stop_recording","time_pygaze","time_start_recording","time_stop_recording","time_test_location","time_trial","time_trial_loop","time_trial_seq","title","total_blocks","tracker_dev","trial_type","trials_in_block","trigger","uniform_coordinates","update_blinks","width","x","y","toward","containsNaN","rept","repd","prevtar","pd","nt","pd_c","nt_c","tar_dist","dist_dist","prevHP","eegTar","repteeg","tarcounter"
"1",1870.41929999937,1870.41929999937,1870.41929999937,1,1,"#000000","no",1856.12260000016,1,"neutral","psycho","psycho","psycho",0,"uniform",1,0,0,0,NA,0,0,NA,0,0,0,0,0,0,NA,NA,NA,NA,0,0,0,NA,0,0,0,73.2296414732588,"Wed Sep  1 11:30:53 2021","The main experiment item","yes","red","no","1","diamond",NA,"pinging_target_expectations 4.0.osexp","C:\Users\etp-cp-ping\Desktop\LocalPC-EXP",75,"no","mono","no",18,"no","white","no","yes",1050,NA,100,"psycho",0,0,0,"C:/Users/etp-cp-ping/Desktop/LocalPC-EXP/subject-11.csv","psycho",0,1,1,"Lentiform Loewenfeld","3.3.8","['vert', 'hori', 'vert', 'hori', 'hori', 'vert', 'hori', 'vert']","no",209,"None","yes",0,NA,2,"legacy",NA,1024,2,48000,-16,"experiment",11,"odd","green","no",3,"circle",472241.2698,472345.0228,472345.0637,NA,480545.2967,NA,NA,160676.359999999,1860.95389999991,NA,160676.3814,481570.9464,485410.4299,NA,NA,NA,NA,1861.03319999984,481195.8075,NA,NA,481570.9613,481566.6334,481570.902699999,"New experiment",19,"[0]","dist_present",56,42,"yes","yes",1680,NA,NA,NA,NA,"NR","NR","lp",NA,NA,NA,NA,NA,NA,"practice",999,"NR","in"
"2",1628.39640000038,3498.81569999974,3498.81569999974,2,2,"#000000","no",1856.12260000016,1,"neutral","psycho","psycho","psycho",0,"uniform",1,0,0,0,NA,0,0,NA,0,0,0,0,1,1,NA,NA,NA,NA,0,0,0,NA,1,0,1,73.2296414732588,"Wed Sep  1 11:30:53 2021","The main experiment item","yes","green","no","None","diamond",NA,"pinging_target_expectations 4.0.osexp","C:\Users\etp-cp-ping\Desktop\LocalPC-EXP",75,"no","mono","no",18,"no","white","no","yes",1050,NA,100,"psycho",1,0,1,"C:/Users/etp-cp-ping/Desktop/LocalPC-EXP/subject-11.csv","psycho",0,2,2,"Lentiform Loewenfeld","3.3.8","['hori', 'hori', 'hori', 'vert', 'vert', 'hori', 'vert', 'vert']","no",209,"None","yes",0,NA,2,"legacy",NA,1024,2,48000,-16,"experiment",11,"odd","red","no",6,"circle",472241.2698,472345.0228,472345.0637,NA,480545.2967,NA,NA,160676.359999999,1860.95389999991,NA,160676.3814,485453.0456,488994.4825,NA,NA,NA,NA,1861.03319999984,481195.8075,NA,NA,485453.0599,481566.6334,485452.9947,"New experiment",19,"[0]","dist_absent",56,79,"yes","yes",1680,NA,NA,NA,NA,"NR","NR","lp",NA,"Right",NA,"Right",NA,NA,"practice",3,"NR","in"
"3",1320.95019999996,4819.76589999971,4819.76589999971,3,3,"#000000","no",1856.12260000016,1,"neutral","psycho","psycho","psycho",0,"uniform",1,0,0,0,NA,0,0,NA,0,0,0,0,2,2,NA,NA,NA,NA,0,0,0,NA,2,0,2,73.2296414732588,"Wed Sep  1 11:30:53 2021","The main experiment item","yes","red","no","4","diamond",NA,"pinging_target_expectations 4.0.osexp","C:\Users\etp-cp-ping\Desktop\LocalPC-EXP",75,"no","mono","no",18,"no","white","no","yes",1050,NA,100,"psycho",2,0,2,"C:/Users/etp-cp-ping/Desktop/LocalPC-EXP/subject-11.csv","psycho",0,3,3,"Lentiform Loewenfeld","3.3.8","['vert', 'hori', 'hori', 'hori', 'vert', 'vert', 'vert', 'hori']","no",209,"None","yes",0,NA,2,"legacy",NA,1024,2,48000,-16,"experiment",11,"odd","green","no",2,"circle",472241.2698,472345.0228,472345.0637,NA,480545.2967,NA,NA,160676.359999999,1860.95389999991,NA,160676.3814,489025.3672,492354.465599999,NA,NA,NA,NA,1861.03319999984,481195.8075,NA,NA,489025.3814,481566.6334,489025.3155,"New experiment",19,"[0]","dist_present",56,35,"yes","yes",1680,NA,NA,NA,NA,"NR","NR","lp",NA,"Left",NA,"Left",NA,NA,"practice",6,"NR","in"
"4",2000.94690000056,6820.71280000027,6820.71280000027,3,3,"#000000","no",1856.12260000016,1,"neutral","psycho","psycho","psycho",0,"uniform",0,0,0,0,NA,0,0,NA,0,0,0,0,3,3,NA,NA,NA,NA,0,0,0,NA,3,0,3,73.2296414732588,"Wed Sep  1 11:30:53 2021","The main experiment item","yes","red","no","7","diamond",NA,"pinging_target_expectations 4.0.osexp","C:\Users\etp-cp-ping\Desktop\LocalPC-EXP",75,"no","mono","no",18,"no","white","no","yes",1050,NA,100,"psycho",3,0,3,"C:/Users/etp-cp-ping/Desktop/LocalPC-EXP/subject-11.csv","psycho",0,4,4,"Lentiform Loewenfeld","3.3.8","['vert', 'hori', 'hori', 'hori', 'hori', 'vert', 'vert', 'vert']","no",209,"None","yes",0,NA,2,"legacy",NA,1024,2,48000,-16,"experiment",11,"odd","green","no",0,"circle",472241.2698,472345.0228,472345.0637,NA,480545.2967,NA,NA,160676.359999999,1860.95389999991,NA,160676.3814,492384.8249,496308.3572,NA,NA,NA,NA,1861.03319999984,481195.8075,NA,NA,492384.838999999,481566.6334,492384.7749,"New experiment",19,"[0]","dist_present",56,18,"yes","yes",1680,NA,NA,NA,NA,"NR","NR","lp","Right",NA,NA,NA,NA,NA,"practice",2,"NR","in"
"5",2000.43189999997,8821.14470000024,8821.14470000024,3,3,"#000000","no",1856.12260000016,1,"neutral","psycho","psycho","psycho",0,"uniform",0,0,0,0,NA,0,0,NA,0,0,0,0,4,4,NA,NA,NA,NA,0,0,0,NA,4,0,4,73.2296414732588,"Wed Sep  1 11:30:53 2021","The main experiment item","yes","green","no","4","circle",NA,"pinging_target_expectations 4.0.osexp","C:\Users\etp-cp-ping\Desktop\LocalPC-EXP",75,"no","mono","no",18,"no","white","no","yes",1050,NA,100,"psycho",4,0,4,"C:/Users/etp-cp-ping/Desktop/LocalPC-EXP/subject-11.csv","psycho",0,5,5,"Lentiform Loewenfeld","3.3.8","['vert', 'hori', 'vert', 'hori', 'hori', 'vert', 'vert', 'hori']","yes",109,"circles","yes",0,NA,2,"legacy",NA,1024,2,48000,-16,"experiment",11,"odd","red","no",5,"diamond",472241.2698,472345.0228,472345.0637,NA,480545.2967,NA,NA,160676.359999999,1860.95389999991,NA,160676.3814,496338.5154,500104.3338,NA,NA,NA,NA,1861.03319999984,481195.8075,NA,NA,496338.5293,481566.6334,496338.4648,"New experiment",19,"[0]","dist_present",56,65,"yes","yes",1680,NA,NA,NA,NA,"NR","NR","lp",NA,"Right",NA,NA,NA,NA,"practice",0,"NR","in"
"6",1929.97759999981,10751.1223,10751.1223,4,4,"#000000","no",1856.12260000016,1,"neutral","psycho","psycho","psycho",0,"uniform",1,0,0,0,NA,0,0,NA,0,0,0,0,5,5,NA,NA,NA,NA,0,0,0,NA,5,0,5,73.2296414732588,"Wed Sep  1 11:30:53 2021","The main experiment item","yes","red","no","None","diamond",NA,"pinging_target_expectations 4.0.osexp","C:\Users\etp-cp-ping\Desktop\LocalPC-EXP",75,"no","mono","no",18,"no","white","no","yes",1050,NA,100,"psycho",5,0,5,"C:/Users/etp-cp-ping/Desktop/LocalPC-EXP/subject-11.csv","psycho",0,6,6,"Lentiform Loewenfeld","3.3.8","['hori', 'hori', 'vert', 'vert', 'hori', 'hori', 'vert', 'vert']","no",209,"None","yes",0,NA,2,"legacy",NA,1024,2,48000,-16,"experiment",11,"odd","green","no",0,"circle",472241.2698,472345.0228,472345.0637,NA,480545.2967,NA,NA,160676.359999999,1860.95389999991,NA,160676.3814,500135.4948,503906.4161,NA,NA,NA,NA,1861.03319999984,481195.8075,NA,NA,500135.5088,481566.6334,500135.444699999,"New experiment",19,"[0]","dist_absent",56,19,"yes","yes",1680,NA,NA,NA,NA,"NR","NR","lp",NA,NA,NA,NA,NA,NA,"practice",5,"NR","in"
"7",2000.82320000004,12751.9455000001,12751.9455000001,4,4,"#000000","no",1856.12260000016,1,"neutral","psycho","psycho","psycho",0,"uniform",0,0,0,0,NA,0,0,NA,0,0,0,0,6,6,NA,NA,NA,NA,0,0,0,NA,6,0,6,73.2296414732588,"Wed Sep  1 11:30:53 2021","The main experiment item","yes","red","no","1","diamond",NA,"pinging_target_expectations 4.0.osexp","C:\Users\etp-cp-ping\Desktop\LocalPC-EXP",75,"no","mono","no",18,"no","white","no","yes",1050,NA,100,"psycho",6,0,6,"C:/Users/etp-cp-ping/Desktop/LocalPC-EXP/subject-11.csv","psycho",0,7,7,"Lentiform Loewenfeld","3.3.8","['hori', 'vert', 'hori', 'hori', 'vert', 'vert', 'hori', 'vert']","no",209,"None","yes",0,NA,2,"legacy",NA,1024,2,48000,-16,"experiment",11,"odd","green","no",4,"circle",472241.2698,472345.0228,472345.0637,NA,480545.2967,NA,NA,160676.359999999,1860.95389999991,NA,160676.3814,503936.7108,507897.393499999,NA,NA,NA,NA,1861.03319999984,481195.8075,NA,NA,503936.7247,481566.6334,503936.6622,"New experiment",19,"[0]","dist_present",56,52,"yes","yes",1680,NA,NA,NA,NA,"NR","NR","lp","Left",NA,NA,NA,NA,NA,"practice",0,"NR","in"
"8",1583.97349999996,14335.9190000001,14335.9190000001,5,5,"#000000","no",1856.12260000016,1,"neutral","psycho","psycho","psycho",0,"uniform",1,0,0,0,NA,0,0,NA,0,0,0,0,7,7,NA,NA,NA,NA,0,0,0,NA,7,0,7,73.2296414732588,"Wed Sep  1 11:30:53 2021","The main experiment item","yes","green","no","1","circle",NA,"pinging_target_expectations 4.0.osexp","C:\Users\etp-cp-ping\Desktop\LocalPC-EXP",75,"no","mono","no",18,"no","white","no","yes",1050,NA,100,"psycho",7,0,7,"C:/Users/etp-cp-ping/Desktop/LocalPC-EXP/subject-11.csv","psycho",0,8,8,"Lentiform Loewenfeld","3.3.8","['vert', 'hori', 'hori', 'hori', 'hori', 'vert', 'vert', 'vert']","yes",109,"circles","yes",0,NA,2,"legacy",NA,1024,2,48000,-16,"experiment",11,"odd","red","no",7,"diamond",472241.2698,472345.0228,472345.0637,NA,480545.2967,NA,NA,160676.359999999,1860.95389999991,NA,160676.3814,507927.5689,511570.4531,NA,NA,NA,NA,1861.03319999984,481195.8075,NA,NA,507927.583199999,481566.6334,507927.5191,"New experiment",19,"[0]","dist_present",56,82,"yes","yes",1680,NA,NA,NA,NA,"NR","R","lp",NA,NA,NA,NA,NA,NA,"practice",4,"NR","in"
"9",2000.60530000064,16336.5243000007,16336.5243000007,5,5,"#000000","no",1856.12260000016,1,"neutral","psycho","psycho","psycho",0,"uniform",0,0,0,0,NA,0,0,NA,0,0,0,0,8,8,NA,NA,NA,NA,0,0,0,NA,8,0,8,73.2296414732588,"Wed Sep  1 11:30:53 2021","The main experiment item","yes","green","no","4","diamond",NA,"pinging_target_expectations 4.0.osexp","C:\Users\etp-cp-ping\Desktop\LocalPC-EXP",75,"no","mono","no",18,"no","white","no","yes",1050,NA,100,"psycho",8,0,8,"C:/Users/etp-cp-ping/Desktop/LocalPC-EXP/subject-11.csv","psycho",0,9,9,"Lentiform Loewenfeld","3.3.8","['vert', 'vert', 'hori', 'hori', 'hori', 'vert', 'hori', 'vert']","yes",109,"circles","yes",0,NA,2,"legacy",NA,1024,2,48000,-16,"experiment",11,"odd","red","no",7,"circle",472241.2698,472345.0228,472345.0637,NA,480545.2967,NA,NA,160676.359999999,1860.95389999991,NA,160676.3814,511600.9556,515473.386799999,NA,NA,NA,NA,1861.03319999984,481195.8075,NA,NA,511600.9695,481566.6334,511600.906199999,"New experiment",19,"[0]","dist_present",56,85,"yes","yes",1680,NA,NA,NA,NA,"R","NR","lp",NA,"Right",NA,NA,NA,NA,"practice",7,"NR","in"
"10",1723.42329999997,18059.9476000007,18059.9476000007,6,6,"#000000","no",1856.12260000016,1,"neutral","psycho","psycho","psycho",0,"uniform",1,0,0,0,NA,0,0,NA,0,0,0,0,9,9,NA,NA,NA,NA,0,0,0,NA,9,0,9,73.2296414732588,"Wed Sep  1 11:30:53 2021","The main experiment item","yes","green","no","2","circle",NA,"pinging_target_expectations 4.0.osexp","C:\Users\etp-cp-ping\Desktop\LocalPC-EXP",75,"no","mono","no",18,"no","white","no","yes",1050,NA,100,"psycho",9,0,9,"C:/Users/etp-cp-ping/Desktop/LocalPC-EXP/subject-11.csv","psycho",0,10,10,"Lentiform Loewenfeld","3.3.8","['hori', 'vert', 'vert', 'hori', 'vert', 'hori', 'hori', 'vert']","no",209,"None","yes",0,NA,2,"legacy",NA,1024,2,48000,-16,"experiment",11,"odd","red","no",6,"diamond",472241.2698,472345.0228,472345.0637,NA,480545.2967,NA,NA,160676.359999999,1860.95389999991,NA,160676.3814,515503.6254,519090.5408,NA,NA,NA,NA,1861.03319999984,481195.8075,NA,NA,515503.6396,481566.6334,515503.576,"New experiment",19,"[0]","dist_present",56,73,"yes","yes",1680,NA,NA,NA,NA,"NR","NR","lp",NA,NA,NA,NA,NA,NA,"practice",7,"R","in"
"11",1414.06499999994,19474.0126000006,19474.0126000006,7,7,"#000000","no",1856.12260000016,1,"neutral","psycho","psycho","psycho",0,"uniform",1,0,0,0,NA,0,0,NA,0,0,0,0,10,10,NA,NA,NA,NA,0,0,0,NA,10,0,10,73.2296414732588,"Wed Sep  1 11:30:53 2021","The main experiment item","yes","red","no","3","circle",NA,"pinging_target_expectations 4.0.osexp","C:\Users\etp-cp-ping\Desktop\LocalPC-EXP",75,"no","mono","no",18,"no","white","no","yes",1050,NA,100,"psycho",10,0,10,"C:/Users/etp-cp-ping/Desktop/LocalPC-EXP/subject-11.csv","psycho",0,11,11,"Lentiform Loewenfeld","3.3.8","['hori', 'hori', 'hori', 'vert', 'hori', 'vert', 'vert', 'vert']","yes",109,"diamond","yes",0,NA,2,"legacy",NA,1024,2,48000,-16,"experiment",11,"odd","green","no",5,"diamond",472241.2698,472345.0228,472345.0637,NA,480545.2967,NA,NA,160676.359999999,1860.95389999991,NA,160676.3814,519121.1244,522354.4302,NA,NA,NA,NA,1861.03319999984,481195.8075,NA,NA,519121.1385,481566.6334,519121.0743,"New experiment",19,"[0]","dist_present",56,64,"yes","yes",1680,NA,NA,NA,NA,"NR","NR","lp",NA,NA,NA,NA,NA,NA,"practice",6,"NR","in"
"12",1276.74010000011,20750.7527000007,20750.7527000007,8,8,"#000000","no",1856.12260000016,1,"neutral","psycho","psycho","psycho",0,"uniform",1,0,0,0,NA,0,0,NA,0,0,0,0,11,11,NA,NA,NA,NA,0,0,0,NA,11,0,11,73.2296414732588,"Wed Sep  1 11:30:53 2021","The main experiment item","yes","green","no","6","diamond",NA,"pinging_target_expectations 4.0.osexp","C:\Users\etp-cp-ping\Desktop\LocalPC-EXP",75,"no","mono","no",18,"no","white","no","yes",1050,NA,100,"psycho",11,0,11,"C:/Users/etp-cp-ping/Desktop/LocalPC-EXP/subject-11.csv","psycho",0,12,12,"Lentiform Loewenfeld","3.3.8","['hori', 'vert', 'hori', 'vert', 'hori', 'hori', 'vert', 'vert']","no",209,"None","yes",0,NA,2,"legacy",NA,1024,2,48000,-16,"experiment",11,"odd","red","no",0,"circle",472241.2698,472345.0228,472345.0637,NA,480545.2967,NA,NA,160676.359999999,1860.95389999991,NA,160676.3814,522384.8595,525522.5212,NA,NA,NA,NA,1861.03319999984,481195.8075,NA,NA,522384.8738,481566.6334,522384.809499999,"New experiment",19,"[0]","dist_present",56,17,"yes","yes",1680,NA,NA,NA,NA,"NR","NR","lp","Right",NA,"Right",NA,NA,NA,"practice",5,"NR","in"
"13",939.213599999668,21689.9663000004,21689.9663000004,8,8,"#000000","no",1856.12260000016,1,"neutral","psycho","psycho","psycho",0,"uniform",0,0,0,0,NA,0,0,NA,0,0,0,0,12,12,NA,NA,NA,NA,0,0,0,NA,12,0,12,73.2296414732588,"Wed Sep  1 11:30:53 2021","The main experiment item","yes","green","no","None","circle",NA,"pinging_target_expectations 4.0.osexp","C:\Users\etp-cp-ping\Desktop\LocalPC-EXP",75,"no","mono","no",18,"no","white","no","yes",1050,NA,100,"psycho",12,0,12,"C:/Users/etp-cp-ping/Desktop/LocalPC-EXP/subject-11.csv","psycho",0,13,13,"Lentiform Loewenfeld","3.3.8","['vert', 'hori', 'vert', 'vert', 'vert', 'hori', 'hori', 'hori']","no",209,"None","yes",0,NA,2,"legacy",NA,1024,2,48000,-16,"experiment",11,"odd","red","no",1,"diamond",472241.2698,472345.0228,472345.0637,NA,480545.2967,NA,NA,160676.359999999,1860.95389999991,NA,160676.3814,525552.8084,528450.4305,NA,NA,NA,NA,1861.03319999984,481195.8075,NA,NA,525552.8227,481566.6334,525552.7603,"New experiment",19,"[0]","dist_absent",56,29,"yes","yes",1680,NA,NA,NA,NA,"NR","NR","lp",NA,"Left",NA,NA,NA,NA,"practice",0,"NR","in"
"14",1771.60540000023,23461.5717000006,23461.5717000006,9,9,"#000000","no",1856.12260000016,1,"neutral","psycho","psycho","psycho",0,"uniform",1,0,0,0,NA,0,0,NA,0,0,0,0,13,13,NA,NA,NA,NA,0,0,0,NA,13,0,13,73.2296414732588,"Wed Sep  1 11:30:53 2021","The main experiment item","yes","red","no","0","circle",NA,"pinging_target_expectations 4.0.osexp","C:\Users\etp-cp-ping\Desktop\LocalPC-EXP",75,"no","mono","no",18,"no","white","no","yes",1050,NA,100,"psycho",13,0,13,"C:/Users/etp-cp-ping/Desktop/LocalPC-EXP/subject-11.csv","psycho",0,14,14,"Lentiform Loewenfeld","3.3.8","['hori', 'vert', 'vert', 'hori', 'vert', 'hori', 'hori', 'vert']","yes",109,"circles","yes",0,NA,2,"legacy",NA,1024,2,48000,-16,"experiment",11,"odd","green","no",3,"diamond",472241.2698,472345.0228,472345.0637,NA,480545.2967,NA,NA,160676.359999999,1860.95389999991,NA,160676.3814,528481.06,532210.4576,NA,NA,NA,NA,1861.03319999984,481195.8075,NA,NA,528481.0742,481566.6334,528481.0059,"New experiment",19,"[0]","dist_present",56,41,"yes","yes",1680,NA,NA,NA,NA,"NR","NR","lp",NA,"Left",NA,NA,NA,NA,"practice",1,"NR","in"
"15",2000.21199999994,25461.7837000006,25461.7837000006,9,9,"#000000","no",1856.12260000016,1,"neutral","psycho","psycho","psycho",0,"uniform",0,0,0,0,NA,0,0,NA,0,0,0,0,14,14,NA,NA,NA,NA,0,0,0,NA,14,0,14,73.2296414732588,"Wed Sep  1 11:30:53 2021","The main experiment item","yes","red","no","None","circle",NA,"pinging_target_expectations 4.0.osexp","C:\Users\etp-cp-ping\Desktop\LocalPC-EXP",75,"no","mono","no",18,"no","white","no","yes",1050,NA,100,"psycho",14,0,14,"C:/Users/etp-cp-ping/Desktop/LocalPC-EXP/subject-11.csv","psycho",0,15,15,"Lentiform Loewenfeld","3.3.8","['vert', 'vert', 'vert', 'hori', 'hori', 'vert', 'hori', 'hori']","yes",109,"circles","yes",0,NA,2,"legacy",NA,1024,2,48000,-16,"experiment",11,"odd","green","no",1,"diamond",472241.2698,472345.0228,472345.0637,NA,480545.2967,NA,NA,160676.359999999,1860.95389999991,NA,160676.3814,532240.8939,536153.0371,NA,NA,NA,NA,1861.03319999984,481195.8075,NA,NA,532240.9086,481566.6334,532240.8438,"New experiment",19,"[0]","dist_absent",56,29,"yes","yes",1680,NA,NA,NA,NA,"NR","NR","lp",NA,"Left",NA,NA,NA,NA,"practice",3,"NR","in"
"16",1633.55789999967,27095.3416000002,27095.3416000002,10,10,"#000000","no",1856.12260000016,1,"neutral","psycho","psycho","psycho",0,"uniform",1,0,0,0,NA,0,0,NA,0,0,0,0,15,15,NA,NA,NA,NA,0,0,0,NA,15,0,15,73.2296414732588,"Wed Sep  1 11:30:53 2021","The main experiment item","yes","red","no","5","circle",NA,"pinging_target_expectations 4.0.osexp","C:\Users\etp-cp-ping\Desktop\LocalPC-EXP",75,"no","mono","no",18,"no","white","no","yes",1050,NA,100,"psycho",15,0,15,"C:/Users/etp-cp-ping/Desktop/LocalPC-EXP/subject-11.csv","psycho",0,16,16,"Lentiform Loewenfeld","3.3.8","['vert', 'hori', 'hori', 'vert', 'vert', 'hori', 'vert', 'hori']","no",209,"None","yes",0,NA,2,"legacy",NA,1024,2,48000,-16,"experiment",11,"odd","green","no",3,"diamond",472241.2698,472345.0228,472345.0637,NA,480545.2967,NA,NA,160676.359999999,1860.95389999991,NA,160676.3814,536183.2481,539522.484,NA,NA,NA,NA,1861.03319999984,481195.8075,NA,NA,536183.2624,481566.6334,536183.1992,"New experiment",19,"[0]","dist_present",56,46,"yes","yes",1680,NA,NA,NA,NA,"NR","NR","lp",NA,NA,NA,NA,NA,NA,"practice",1,"NR","in"
"17",1759.5698999993,28854.9114999995,28854.9114999995,11,11,"#000000","no",1856.12260000016,1,"neutral","psycho","psycho","psycho",0,"uniform",1,0,0,0,NA,0,0,NA,0,0,0,0,16,16,NA,NA,NA,NA,0,0,0,NA,16,0,16,73.2296414732588,"Wed Sep  1 11:30:53 2021","The main experiment item","yes","green","no","6","circle",NA,"pinging_target_expectations 4.0.osexp","C:\Users\etp-cp-ping\Desktop\LocalPC-EXP",75,"no","mono","no",18,"no","white","no","yes",1050,NA,100,"psycho",16,0,16,"C:/Users/etp-cp-ping/Desktop/LocalPC-EXP/subject-11.csv","psycho",0,17,17,"Lentiform Loewenfeld","3.3.8","['hori', 'hori', 'hori', 'hori', 'vert', 'vert', 'vert', 'vert']","yes",109,"diamond","yes",0,NA,2,"legacy",NA,1024,2,48000,-16,"experiment",11,"odd","red","no",5,"diamond",472241.2698,472345.0228,472345.0637,NA,480545.2967,NA,NA,160676.359999999,1860.95389999991,NA,160676.3814,539553.0834,543074.4526,NA,NA,NA,NA,1861.03319999984,481195.8075,NA,NA,539553.0976,481566.6334,539553.034,"New experiment",19,"[0, 73.33466396072907, 74.07091196954443, 73.68479319900058, 73.41911447879389, 73.80685614602713, 75.81719717647216, 75.54388844924219, 75.27919135054003, 75.23806399153285, 74.99363913456445, 74.19179840413688, 74.16306601892995, 73.56155670261786, 73.90832674143624]","dist_present",56,67,"yes","yes",1680,NA,NA,NA,NA,"NR","NR","lp",NA,NA,NA,NA,NA,NA,"practice",3,"NR","in"
"18",1270.39359999984,30125.3050999994,30125.3050999994,12,12,"#000000","no",1856.12260000016,1,"neutral","psycho","psycho","psycho",0,"uniform",1,0,0,0,NA,0,0,NA,0,0,0,0,17,17,NA,NA,NA,NA,0,0,0,NA,17,0,17,73.2296414732588,"Wed Sep  1 11:30:53 2021","The main experiment item","yes","green","no","5","diamond",NA,"pinging_target_expectations 4.0.osexp","C:\Users\etp-cp-ping\Desktop\LocalPC-EXP",75,"no","mono","no",18,"no","white","no","yes",1050,NA,100,"psycho",17,0,17,"C:/Users/etp-cp-ping/Desktop/LocalPC-EXP/subject-11.csv","psycho",0,18,18,"Lentiform Loewenfeld","3.3.8","['hori', 'hori', 'hori', 'hori', 'vert', 'vert', 'vert', 'vert']","yes",109,"circles","yes",0,NA,2,"legacy",NA,1024,2,48000,-16,"experiment",11,"odd","red","no",6,"circle",472241.2698,472345.0228,472345.0637,NA,480545.2967,NA,NA,160676.359999999,1860.95389999991,NA,160676.3814,543104.9606,546482.4247,NA,NA,NA,NA,1861.03319999984,481195.8075,NA,NA,543104.9753,481566.6334,543104.9071,"New experiment",19,"[0]","dist_present",56,76,"yes","yes",1680,NA,NA,NA,NA,"NR","NR","lp",NA,NA,NA,NA,NA,NA,"practice",5,"NR","in"
"19",1735.31040000042,31860.6154999998,31860.6154999998,13,13,"#000000","no",547392.0028,1,"neutral","psycho","psycho","psycho",0,"uniform",1,0,0,0,NA,0,0,NA,0,0,0,0,18,18,NA,NA,NA,NA,0,0,0,NA,18,0,18,73.2296414732588,"Wed Sep  1 11:30:53 2021","The main experiment item","yes","red","no","6","diamond",NA,"pinging_target_expectations 4.0.osexp","C:\Users\etp-cp-ping\Desktop\LocalPC-EXP",75,"no","mono","no",18,"no","white","no","yes",1050,NA,100,"psycho",18,0,18,"C:/Users/etp-cp-ping/Desktop/LocalPC-EXP/subject-11.csv","psycho",1,19,19,"Lentiform Loewenfeld","3.3.8","['hori', 'hori', 'vert', 'vert', 'vert', 'vert', 'hori', 'hori']","yes",109,"diamond","yes",0,NA,2,"legacy",NA,1024,2,48000,-16,"experiment",11,"odd","green","no",5,"circle",472241.2698,472345.0228,472345.0637,NA,480545.2967,NA,NA,160676.359999999,1860.95389999991,NA,160676.3814,546512.9943,550194.4673,NA,NA,NA,NA,1861.03319999984,481195.8075,NA,NA,546513.0085,481566.6334,546512.9458,"New experiment",19,"[0]","dist_present",56,67,"yes","yes",1680,NA,NA,NA,NA,"NR","NR","lp",NA,NA,NA,NA,NA,NA,"practice",6,"NR","in"
"20",2000.21299999929,33860.8284999991,33860.8284999991,13,13,"#000000","no",547392.0028,1,"neutral","psycho","psycho","psycho",0,"uniform",0,0,0,0,NA,0,0,NA,0,0,0,0,19,19,NA,NA,NA,NA,0,0,0,NA,19,0,19,73.2296414732588,"Wed Sep  1 11:30:53 2021","The main experiment item","yes","green","no","None","circle",NA,"pinging_target_expectations 4.0.osexp","C:\Users\etp-cp-ping\Desktop\LocalPC-EXP",75,"no","mono","no",18,"no","white","no","yes",1050,NA,100,"psycho",19,0,19,"C:/Users/etp-cp-ping/Desktop/LocalPC-EXP/subject-11.csv","psycho",1,20,20,"Lentiform Loewenfeld","3.3.8","['hori', 'hori', 'hori', 'vert', 'hori', 'vert', 'vert', 'vert']","yes",109,"diamond","yes",0,NA,2,"legacy",NA,1024,2,48000,-16,"experiment",11,"odd","red","no",7,"diamond",472241.2698,472345.0228,472345.0637,NA,480545.2967,NA,NA,160676.359999999,1860.95389999991,NA,160676.3814,550225.0907,554261.055,NA,NA,NA,NA,1861.03319999984,481195.8075,NA,NA,550225.1046,481566.6334,550225.0419,"New experiment",19,"[0]","dist_absent",56,89,"yes","yes",1680,NA,NA,NA,NA,"NR","NR","lp",NA,"Right",NA,NA,NA,NA,"practice",5,"NR","in"
"21",1791.62139999971,35652.4498999988,35652.4498999988,14,14,"#000000","no",555484.6999,1,"neutral","psycho","psycho","psycho",0,"uniform",1,0,0,0,NA,0,0,NA,0,0,0,0,20,20,NA,NA,NA,NA,0,0,0,NA,20,0,20,73.2296414732588,"Wed Sep  1 11:30:53 2021","The main experiment item","yes","red","no","0","circle",NA,"pinging_target_expectations 4.0.osexp","C:\Users\etp-cp-ping\Desktop\LocalPC-EXP",75,"no","mono","no",18,"no","white","no","yes",1050,NA,100,"psycho",20,0,20,"C:/Users/etp-cp-ping/Desktop/LocalPC-EXP/subject-11.csv","psycho",2,21,21,"Lentiform Loewenfeld","3.3.8","['vert', 'vert', 'hori', 'vert', 'hori', 'hori', 'vert', 'hori']","yes",109,"circles","yes",0,NA,2,"legacy",NA,1024,2,48000,-16,"experiment",11,"odd","green","no",1,"diamond",472241.2698,472345.0228,472345.0637,NA,480545.2967,NA,NA,160676.359999999,1860.95389999991,NA,160676.3814,554291.3219,557970.480299999,NA,NA,NA,NA,1861.03319999984,481195.8075,NA,NA,554291.3361,481566.6334,554291.274,"New experiment",19,"[0]","dist_present",56,21,"yes","yes",1680,NA,NA,NA,NA,"NR","NR","lp",NA,"Left",NA,NA,NA,NA,"practice",7,"NR","in"
"22",1244.87829999998,36897.3281999988,36897.3281999988,15,15,"#000000","no",555484.6999,1,"neutral","psycho","psycho","psycho",0,"uniform",1,0,0,0,NA,0,0,NA,0,0,0,0,21,21,NA,NA,NA,NA,0,0,0,NA,21,0,21,73.2296414732588,"Wed Sep  1 11:30:53 2021","The main experiment item","yes","green","no","None","diamond",NA,"pinging_target_expectations 4.0.osexp","C:\Users\etp-cp-ping\Desktop\LocalPC-EXP",75,"no","mono","no",18,"no","white","no","yes",1050,NA,100,"psycho",21,0,21,"C:/Users/etp-cp-ping/Desktop/LocalPC-EXP/subject-11.csv","psycho",2,22,22,"Lentiform Loewenfeld","3.3.8","['vert', 'hori', 'vert', 'hori', 'vert', 'vert', 'hori', 'hori']","yes",109,"diamond","yes",0,NA,2,"legacy",NA,1024,2,48000,-16,"experiment",11,"odd","red","no",2,"circle",472241.2698,472345.0228,472345.0637,NA,480545.2967,NA,NA,160676.359999999,1860.95389999991,NA,160676.3814,558001.031899999,560978.4776,NA,NA,NA,NA,1861.03319999984,481195.8075,NA,NA,558001.045999999,481566.6334,558000.9832,"New experiment",19,"[0]","dist_absent",56,39,"yes","yes",1680,NA,NA,NA,NA,"NR","NR","lp",NA,"Left",NA,"Left",NA,NA,"practice",1,"NR","in"
"23",1634.21780000045,38531.5459999992,38531.5459999992,16,16,"#000000","no",555484.6999,1,"neutral","psycho","psycho","psycho",0,"uniform",1,0,0,0,NA,0,0,NA,0,0,0,0,22,22,NA,NA,NA,NA,0,0,0,NA,22,0,22,73.2296414732588,"Wed Sep  1 11:30:53 2021","The main experiment item","yes","green","no","4","diamond",NA,"pinging_target_expectations 4.0.osexp","C:\Users\etp-cp-ping\Desktop\LocalPC-EXP",75,"no","mono","no",18,"no","white","no","yes",1050,NA,100,"psycho",22,0,22,"C:/Users/etp-cp-ping/Desktop/LocalPC-EXP/subject-11.csv","psycho",2,23,23,"Lentiform Loewenfeld","3.3.8","['hori', 'hori', 'vert', 'hori', 'vert', 'vert', 'hori', 'vert']","yes",109,"diamond","yes",0,NA,2,"legacy",NA,1024,2,48000,-16,"experiment",11,"odd","red","no",5,"circle",472241.2698,472345.0228,472345.0637,NA,480545.2967,NA,NA,160676.359999999,1860.95389999991,NA,160676.3814,561008.988699999,564722.4559,NA,NA,NA,NA,1861.03319999984,481195.8075,NA,NA,561009.002899999,481566.6334,561008.9404,"New experiment",19,"[0]","dist_present",56,65,"yes","yes",1680,NA,NA,NA,NA,"NR","NR","lp",NA,"Right",NA,NA,NA,NA,"practice",2,"NR","in"
"24",1804.09920000064,40335.6451999999,40335.6451999999,17,17,"#000000","no",555484.6999,1,"neutral","psycho","psycho","psycho",0,"uniform",1,0,0,0,NA,0,0,NA,0,0,0,0,23,23,NA,NA,NA,NA,0,0,0,NA,23,0,23,73.2296414732588,"Wed Sep  1 11:30:53 2021","The main experiment item","yes","red","no","None","circle",NA,"pinging_target_expectations 4.0.osexp","C:\Users\etp-cp-ping\Desktop\LocalPC-EXP",75,"no","mono","no",18,"no","white","no","yes",1050,NA,100,"psycho",23,0,23,"C:/Users/etp-cp-ping/Desktop/LocalPC-EXP/subject-11.csv","psycho",2,24,24,"Lentiform Loewenfeld","3.3.8","['vert', 'hori', 'hori', 'vert', 'hori', 'hori', 'vert', 'vert']","no",209,"None","yes",0,NA,2,"legacy",NA,1024,2,48000,-16,"experiment",11,"odd","green","no",4,"diamond",472241.2698,472345.0228,472345.0637,NA,480545.2967,NA,NA,160676.359999999,1860.95389999991,NA,160676.3814,564753.4814,568434.4647,NA,NA,NA,NA,1861.03319999984,481195.8075,NA,NA,564753.4958,481566.6334,564753.4298,"New experiment",19,"[0]","dist_absent",56,59,"yes","yes",1680,NA,NA,NA,NA,"NR","NR","lp",NA,NA,NA,NA,NA,NA,"practice",5,"NR","in"
"25",1485.5791999998,41821.2243999997,41821.2243999997,18,18,"#000000","no",555484.6999,1,"neutral","psycho","psycho","psycho",0,"uniform",1,0,0,0,NA,0,0,NA,0,0,0,0,24,24,NA,NA,NA,NA,0,0,0,NA,24,0,24,73.2296414732588,"Wed Sep  1 11:30:53 2021","The main experiment item","yes","red","no","1","diamond",NA,"pinging_target_expectations 4.0.osexp","C:\Users\etp-cp-ping\Desktop\LocalPC-EXP",75,"no","mono","no",18,"no","white","no","yes",1050,NA,100,"psycho",24,0,24,"C:/Users/etp-cp-ping/Desktop/LocalPC-EXP/subject-11.csv","psycho",2,25,25,"Lentiform Loewenfeld","3.3.8","['vert', 'vert', 'hori', 'hori', 'hori', 'vert', 'vert', 'hori']","no",209,"None","yes",0,NA,2,"legacy",NA,1024,2,48000,-16,"experiment",11,"odd","green","no",3,"circle",472241.2698,472345.0228,472345.0637,NA,480545.2967,NA,NA,160676.359999999,1860.95389999991,NA,160676.3814,568465.0749,571842.4792,NA,NA,NA,NA,1861.03319999984,481195.8075,NA,NA,568465.088999999,481566.6334,568465.025099999,"New experiment",19,"[0]","dist_present",56,42,"yes","yes",1680,NA,NA,NA,NA,"NR","NR","lp",NA,NA,NA,NA,NA,NA,"practice",4,"NR","in"
"26",2000.85399999993,43822.0783999996,43822.0783999996,18,18,"#000000","no",572982.5475,1,"neutral","psycho","psycho","psycho",0,"uniform",0,0,0,0,NA,0,0,NA,0,0,0,0,25,25,NA,NA,NA,NA,0,0,0,NA,25,0,25,73.2296414732588,"Wed Sep  1 11:30:53 2021","The main experiment item","yes","red","no","4","circle",NA,"pinging_target_expectations 4.0.osexp","C:\Users\etp-cp-ping\Desktop\LocalPC-EXP",75,"no","mono","no",18,"no","white","no","yes",1050,NA,100,"psycho",25,0,25,"C:/Users/etp-cp-ping/Desktop/LocalPC-EXP/subject-11.csv","psycho",3,26,26,"Lentiform Loewenfeld","3.3.8","['hori', 'vert', 'hori', 'hori', 'vert', 'vert', 'hori', 'vert']","yes",109,"diamond","yes",0,NA,2,"legacy",NA,1024,2,48000,-16,"experiment",11,"odd","green","no",0,"diamond",472241.2698,472345.0228,472345.0637,NA,480545.2967,NA,NA,160676.359999999,1860.95389999991,NA,160676.3814,571872.9007,575624.0262,NA,NA,NA,NA,1861.03319999984,481195.8075,NA,NA,571872.9149,481566.6334,571872.8501,"New experiment",19,"[0]","dist_present",56,15,"yes","yes",1680,NA,NA,NA,NA,"NR","NR","lp",NA,NA,NA,NA,NA,NA,"practice",3,"NR","in"
"27",1999.99130000011,45822.0696999997,45822.0696999997,18,18,"#000000","no",572982.5475,1,"neutral","psycho","psycho","psycho",0,"uniform",0,0,0,0,NA,0,0,NA,0,0,0,0,26,26,NA,NA,NA,NA,0,0,0,NA,26,0,26,73.2296414732588,"Wed Sep  1 11:30:53 2021","The main experiment item","yes","green","no","2","diamond",NA,"pinging_target_expectations 4.0.osexp","C:\Users\etp-cp-ping\Desktop\LocalPC-EXP",75,"no","mono","no",18,"no","white","no","yes",1050,NA,100,"psycho",26,0,26,"C:/Users/etp-cp-ping/Desktop/LocalPC-EXP/subject-11.csv","psycho",3,27,27,"Lentiform Loewenfeld","3.3.8","['hori', 'vert', 'hori', 'vert', 'vert', 'vert', 'hori', 'hori']","no",209,"None","yes",0,NA,2,"legacy",NA,1024,2,48000,-16,"experiment",11,"odd","red","no",7,"circle",472241.2698,472345.0228,472345.0637,NA,480545.2967,NA,NA,160676.359999999,1860.95389999991,NA,160676.3814,575654.6745,579549.5652,NA,NA,NA,NA,1861.03319999984,481195.8075,NA,NA,575654.689,481566.6334,575654.6281,"New experiment",19,"[0]","dist_present",56,83,"yes","yes",1680,NA,NA,NA,NA,"NR","NR","lp",NA,NA,NA,NA,NA,NA,"practice",0,"NR","in"
"28",1048.11289999995,46870.1825999997,46870.1825999997,19,19,"#000000","no",572982.5475,1,"neutral","psycho","psycho","psycho",0,"uniform",1,0,0,0,NA,0,0,NA,0,0,0,0,27,27,NA,NA,NA,NA,0,0,0,NA,27,0,27,73.2296414732588,"Wed Sep  1 11:30:53 2021","The main experiment item","yes","green","no","5","diamond",NA,"pinging_target_expectations 4.0.osexp","C:\Users\etp-cp-ping\Desktop\LocalPC-EXP",75,"no","mono","no",18,"no","white","no","yes",1050,NA,100,"psycho",27,0,27,"C:/Users/etp-cp-ping/Desktop/LocalPC-EXP/subject-11.csv","psycho",3,28,28,"Lentiform Loewenfeld","3.3.8","['vert', 'vert', 'hori', 'vert', 'hori', 'hori', 'hori', 'vert']","yes",109,"diamond","yes",0,NA,2,"legacy",NA,1024,2,48000,-16,"experiment",11,"odd","red","no",0,"circle",472241.2698,472345.0228,472345.0637,NA,480545.2967,NA,NA,160676.359999999,1860.95389999991,NA,160676.3814,579581.4397,582658.5069,NA,NA,NA,NA,1861.03319999984,481195.8075,NA,NA,579581.4547,481566.6334,579581.387499999,"New experiment",19,"[0]","dist_present",56,16,"yes","yes",1680,NA,NA,NA,NA,"NR","NR","lp","Right",NA,NA,NA,NA,NA,"practice",7,"NR","in"
"29",1723.47800000082,48593.6606000005,48593.6606000005,20,20,"#000000","no",572982.5475,1,"neutral","psycho","psycho","psycho",0,"uniform",1,0,0,0,NA,0,0,NA,0,0,0,0,28,28,NA,NA,NA,NA,0,0,0,NA,28,0,28,73.2296414732588,"Wed Sep  1 11:30:53 2021","The main experiment item","yes","red","no","3","diamond",NA,"pinging_target_expectations 4.0.osexp","C:\Users\etp-cp-ping\Desktop\LocalPC-EXP",75,"no","mono","no",18,"no","white","no","yes",1050,NA,100,"psycho",28,0,28,"C:/Users/etp-cp-ping/Desktop/LocalPC-EXP/subject-11.csv","psycho",3,29,29,"Lentiform Loewenfeld","3.3.8","['vert', 'vert', 'hori', 'vert', 'hori', 'vert', 'hori', 'hori']","yes",109,"circles","yes",0,NA,2,"legacy",NA,1024,2,48000,-16,"experiment",11,"odd","green","no",4,"circle",472241.2698,472345.0228,472345.0637,NA,480545.2967,NA,NA,160676.359999999,1860.95389999991,NA,160676.3814,582689.5214,586114.493,NA,NA,NA,NA,1861.03319999984,481195.8075,NA,NA,582689.5356,481566.6334,582689.4721,"New experiment",19,"[0]","dist_present",56,54,"yes","yes",1680,NA,NA,NA,NA,"NR","NR","lp","Left",NA,NA,NA,NA,NA,"practice",0,"NR","in"
"30",1425.5803999994,50019.2409999999,50019.2409999999,21,21,"#000000","no",572982.5475,1,"neutral","psycho","psycho","psycho",0,"uniform",1,0,0,0,NA,0,0,NA,0,0,0,0,29,29,NA,NA,NA,NA,0,0,0,NA,29,0,29,73.2296414732588,"Wed Sep  1 11:30:53 2021","The main experiment item","yes","red","no","None","diamond",NA,"pinging_target_expectations 4.0.osexp","C:\Users\etp-cp-ping\Desktop\LocalPC-EXP",75,"no","mono","no",18,"no","white","no","yes",1050,NA,100,"psycho",29,0,29,"C:/Users/etp-cp-ping/Desktop/LocalPC-EXP/subject-11.csv","psycho",3,30,30,"Lentiform Loewenfeld","3.3.8","['hori', 'vert', 'hori', 'hori', 'vert', 'vert', 'hori', 'vert']","yes",109,"diamond","yes",0,NA,2,"legacy",NA,1024,2,48000,-16,"experiment",11,"odd","green","no",6,"circle",472241.2698,472345.0228,472345.0637,NA,480545.2967,NA,NA,160676.359999999,1860.95389999991,NA,160676.3814,586145.955,589682.4907,NA,NA,NA,NA,1861.03319999984,481195.8075,NA,NA,586145.9696,481566.6334,586145.9048,"New experiment",19,"[0]","dist_absent",56,79,"yes","yes",1680,NA,NA,NA,NA,"NR","NR","lp",NA,"Right",NA,"Right",NA,NA,"practice",4,"NR","in"
"31",1300.55269999953,51319.7936999994,51319.7936999994,22,22,"#000000","no",572982.5475,1,"neutral","psycho","psycho","psycho",0,"uniform",1,0,0,0,NA,0,0,NA,0,0,0,0,30,30,NA,NA,NA,NA,0,0,0,NA,30,0,30,73.2296414732588,"Wed Sep  1 11:30:53 2021","The main experiment item","yes","green","no","7","circle",NA,"pinging_target_expectations 4.0.osexp","C:\Users\etp-cp-ping\Desktop\LocalPC-EXP",75,"no","mono","no",18,"no","white","no","yes",1050,NA,100,"psycho",30,0,30,"C:/Users/etp-cp-ping/Desktop/LocalPC-EXP/subject-11.csv","psycho",3,31,31,"Lentiform Loewenfeld","3.3.8","['hori', 'hori', 'hori', 'vert', 'vert', 'vert', 'vert', 'hori']","yes",109,"diamond","yes",0,NA,2,"legacy",NA,1024,2,48000,-16,"experiment",11,"odd","red","no",1,"diamond",472241.2698,472345.0228,472345.0637,NA,480545.2967,NA,NA,160676.359999999,1860.95389999991,NA,160676.3814,589712.9623,592834.5191,NA,NA,NA,NA,1861.03319999984,481195.8075,NA,NA,589712.9765,481566.6334,589712.9135,"New experiment",19,"[0, 74.37811516914115, 74.03528542221919, 76.02170064202751, 76.1326304673318, 74.81317076571189, 74.80762309840563, 74.97267495392464, 76.35561208628093, 76.3629623191826, 76.11600282615485, 76.42632136676832, 75.36347964990836, 75.1322297081533, 74.53487764691126, 74.45267608731527, 76.13387839172175, 75.85523998289084, 75.60587927346046, 76.37708729790215, 74.4043009509531, 73.97007770051458, 75.91528492892681, 75.80271796434107, 75.85626245545961, 76.19326132467135, 74.4452954058, 73.67473467574654, 73.44798867917501, 74.38555304431783, 74.22020616992653, 73.27651749610928, 73.33137796095538, 73.58110828922469, 73.88775939741113, 74.30806486121219, 74.39061095358386, 73.58110828922469, 73.62880575968785, 73.79784933125492, 73.89250305718996, 73.63812547974422, 73.46871440177645, 73.49319696407281, 73.59409560693898, 73.68037596765586, 73.57777595014463, 73.70266244290075, 73.65359467165759, 73.76674361376679, 74.23542875916341, 73.92599176407123, 73.53647492592941, 73.43023900274328, 74.21011316523, 73.77915115079495, 74.12852634424145, 74.50888279744429, 73.63948374951555, 73.22964387587719, 73.31318834429254, 73.56662281186725]","dist_present",56,28,"yes","yes",1680,NA,NA,NA,NA,"NR","NR","lp",NA,NA,NA,NA,NA,NA,"practice",6,"NR","in"
"32",2000.0203999998,53319.8140999992,53319.8140999992,22,22,"#000000","no",593427.9961,1,"neutral","psycho","psycho","psycho",0,"uniform",0,0,0,0,NA,0,0,NA,0,0,0,0,31,31,NA,NA,NA,NA,0,0,0,NA,31,0,31,73.2296414732588,"Wed Sep  1 11:30:53 2021","The main experiment item","yes","red","no","3","circle",NA,"pinging_target_expectations 4.0.osexp","C:\Users\etp-cp-ping\Desktop\LocalPC-EXP",75,"no","mono","no",18,"no","white","no","yes",1050,NA,100,"psycho",31,0,31,"C:/Users/etp-cp-ping/Desktop/LocalPC-EXP/subject-11.csv","psycho",4,32,32,"Lentiform Loewenfeld","3.3.8","['hori', 'vert', 'vert', 'hori', 'hori', 'vert', 'vert', 'hori']","no",209,"None","yes",0,NA,2,"legacy",NA,1024,2,48000,-16,"experiment",11,"odd","green","no",2,"diamond",472241.2698,472345.0228,472345.0637,NA,480545.2967,NA,NA,160676.359999999,1860.95389999991,NA,160676.3814,592865.3544,596634.128799999,NA,NA,NA,NA,1861.03319999984,481195.8075,NA,NA,592865.3683,481566.6334,592865.304999999,"New experiment",19,"[0]","dist_present",56,34,"yes","yes",1680,NA,NA,NA,NA,"NR","NR","lp",NA,NA,NA,NA,NA,NA,"practice",1,"NR","in"
"33",1704.45159999968,55024.2656999989,55024.2656999989,23,23,"#000000","no",593427.9961,1,"neutral","psycho","psycho","psycho",0,"uniform",1,0,0,0,NA,0,0,NA,0,0,0,0,32,32,NA,NA,NA,NA,0,0,0,NA,32,0,32,73.2296414732588,"Wed Sep  1 11:30:53 2021","The main experiment item","yes","red","no","None","diamond",NA,"pinging_target_expectations 4.0.osexp","C:\Users\etp-cp-ping\Desktop\LocalPC-EXP",75,"no","mono","no",18,"no","white","no","yes",1050,NA,100,"psycho",32,0,32,"C:/Users/etp-cp-ping/Desktop/LocalPC-EXP/subject-11.csv","psycho",4,33,33,"Lentiform Loewenfeld","3.3.8","['vert', 'hori', 'hori', 'hori', 'vert', 'vert', 'hori', 'vert']","yes",109,"diamond","yes",0,NA,2,"legacy",NA,1024,2,48000,-16,"experiment",11,"odd","green","no",2,"circle",472241.2698,472345.0228,472345.0637,NA,480545.2967,NA,NA,160676.359999999,1860.95389999991,NA,160676.3814,596664.5409,600322.502,NA,NA,NA,NA,1861.03319999984,481195.8075,NA,NA,596664.5547,481566.6334,596664.4928,"New experiment",19,"[0, 73.38617466747068, 74.21298008822211, 73.49913268116465, 73.40189688827547, 73.95134261268646, 73.81392811582015, 73.55764767676152, 74.20328534608586, 74.11105727092712, 74.01310096036836, 74.44923850362528, 74.13860305791582, 73.68176348669023, 74.20673234940824, 74.6234149911551, 75.23630992774508, 74.99369366390893, 77.36335745783391]","dist_absent",56,39,"yes","yes",1680,NA,NA,NA,NA,"R","NR","lp",NA,"Left",NA,"Left",NA,NA,"practice",2,"NR","in"
"34",1666.35249999934,56690.6181999982,56690.6181999982,24,24,"#000000","no",593427.9961,1,"neutral","psycho","psycho","psycho",0,"uniform",1,0,0,0,NA,0,0,NA,0,0,0,0,33,33,NA,NA,NA,NA,0,0,0,NA,33,0,33,73.2296414732588,"Wed Sep  1 11:30:53 2021","The main experiment item","yes","green","no","3","circle",NA,"pinging_target_expectations 4.0.osexp","C:\Users\etp-cp-ping\Desktop\LocalPC-EXP",75,"no","mono","no",18,"no","white","no","yes",1050,NA,100,"psycho",33,0,33,"C:/Users/etp-cp-ping/Desktop/LocalPC-EXP/subject-11.csv","psycho",4,34,34,"Lentiform Loewenfeld","3.3.8","['vert', 'hori', 'vert', 'vert', 'hori', 'hori', 'vert', 'hori']","no",209,"None","yes",0,NA,2,"legacy",NA,1024,2,48000,-16,"experiment",11,"odd","red","no",1,"diamond",472241.2698,472345.0228,472345.0637,NA,480545.2967,NA,NA,160676.359999999,1860.95389999991,NA,160676.3814,600353.2293,603778.4488,NA,NA,NA,NA,1861.03319999984,481195.8075,NA,NA,600353.2432,481566.6334,600353.179199999,"New experiment",19,"[0]","dist_present",56,24,"yes","yes",1680,NA,NA,NA,NA,"NR","NR","lp",NA,NA,NA,NA,NA,NA,"practice",2,"R","in"
"35",1419.74980000034,58110.3679999986,58110.3679999986,25,25,"#000000","no",593427.9961,1,"neutral","psycho","psycho","psycho",0,"uniform",1,0,0,0,NA,0,0,NA,0,0,0,0,34,34,NA,NA,NA,NA,0,0,0,NA,34,0,34,73.2296414732588,"Wed Sep  1 11:30:53 2021","The main experiment item","yes","red","no","5","circle",NA,"pinging_target_expectations 4.0.osexp","C:\Users\etp-cp-ping\Desktop\LocalPC-EXP",75,"no","mono","no",18,"no","white","no","yes",1050,NA,100,"psycho",34,0,34,"C:/Users/etp-cp-ping/Desktop/LocalPC-EXP/subject-11.csv","psycho",4,35,35,"Lentiform Loewenfeld","3.3.8","['vert', 'vert', 'hori', 'vert', 'hori', 'hori', 'hori', 'vert']","no",209,"None","yes",0,NA,2,"legacy",NA,1024,2,48000,-16,"experiment",11,"odd","green","no",6,"diamond",472241.2698,472345.0228,472345.0637,NA,480545.2967,NA,NA,160676.359999999,1860.95389999991,NA,160676.3814,603809.0459,607106.4959,NA,NA,NA,NA,1861.03319999984,481195.8075,NA,NA,603809.0604,481566.6334,603808.996,"New experiment",19,"[0, 74.42175821427406, 74.47983608928972, 74.53802057494619, 76.21285348052989, 76.33005566263682, 75.92580200214066, 74.24800682398563, 73.5860176653812, 74.49725846334773, 73.49913268116465, 73.60926228167877, 73.65166292197691, 73.50698959644279, 73.33137796095538, 73.49913268116465, 73.23057746315108, 73.91733578327555]","dist_present",56,76,"yes","yes",1680,NA,NA,NA,NA,"NR","NR","lp",NA,NA,NA,NA,NA,NA,"practice",1,"NR","in"
"36",1027.32519999973,59137.6931999983,59137.6931999983,26,26,"#000000","no",593427.9961,1,"neutral","psycho","psycho","psycho",0,"uniform",1,0,0,0,NA,0,0,NA,0,0,0,0,35,35,NA,NA,NA,NA,0,0,0,NA,35,0,35,73.2296414732588,"Wed Sep  1 11:30:53 2021","The main experiment item","yes","red","no","None","circle",NA,"pinging_target_expectations 4.0.osexp","C:\Users\etp-cp-ping\Desktop\LocalPC-EXP",75,"no","mono","no",18,"no","white","no","yes",1050,NA,100,"psycho",35,0,35,"C:/Users/etp-cp-ping/Desktop/LocalPC-EXP/subject-11.csv","psycho",4,36,36,"Lentiform Loewenfeld","3.3.8","['vert', 'vert', 'hori', 'hori', 'hori', 'vert', 'hori', 'vert']","no",209,"None","yes",0,NA,2,"legacy",NA,1024,2,48000,-16,"experiment",11,"odd","green","no",4,"diamond",472241.2698,472345.0228,472345.0637,NA,480545.2967,NA,NA,160676.359999999,1860.95389999991,NA,160676.3814,607136.9834,610018.4883,NA,NA,NA,NA,1861.03319999984,481195.8075,NA,NA,607136.9973,481566.6334,607136.9342,"New experiment",19,"[0, 75.93945784191776, 76.4738517403171, 74.28590678766983, 73.66478127300725]","dist_absent",56,59,"yes","yes",1680,NA,NA,NA,NA,"NR","NR","lp",NA,NA,NA,NA,NA,NA,"practice",6,"NR","in"
"37",674.856499999762,59812.5496999981,59812.5496999981,27,27,"#000000","no",593427.9961,1,"neutral","psycho","psycho","psycho",0,"uniform",1,0,0,0,NA,0,0,NA,0,0,0,0,36,36,NA,NA,NA,NA,0,0,0,NA,36,0,36,73.2296414732588,"Wed Sep  1 11:30:53 2021","The main experiment item","yes","red","no","None","circle",NA,"pinging_target_expectations 4.0.osexp","C:\Users\etp-cp-ping\Desktop\LocalPC-EXP",75,"no","mono","no",18,"no","white","no","yes",1050,NA,100,"psycho",36,0,36,"C:/Users/etp-cp-ping/Desktop/LocalPC-EXP/subject-11.csv","psycho",4,37,37,"Lentiform Loewenfeld","3.3.8","['hori', 'vert', 'vert', 'hori', 'hori', 'vert', 'vert', 'hori']","no",209,"None","yes",0,NA,2,"legacy",NA,1024,2,48000,-16,"experiment",11,"odd","green","no",4,"diamond",472241.2698,472345.0228,472345.0637,NA,480545.2967,NA,NA,160676.359999999,1860.95389999991,NA,160676.3814,610051.1183,612642.421099999,NA,NA,NA,NA,1861.03319999984,481195.8075,NA,NA,610051.1324,481566.6334,610051.0692,"New experiment",19,"[0]","dist_absent",56,59,"yes","yes",1680,NA,NA,NA,NA,"R","R","lp",NA,NA,NA,NA,NA,NA,"practice",4,"NR","in"
"38",1779.20340000035,61591.7530999984,61591.7530999984,28,28,"#000000","no",593427.9961,1,"neutral","psycho","psycho","psycho",0,"uniform",1,0,0,0,NA,0,0,NA,0,0,0,0,37,37,NA,NA,NA,NA,0,0,0,NA,37,0,37,73.2296414732588,"Wed Sep  1 11:30:53 2021","The main experiment item","yes","green","no","2","circle",NA,"pinging_target_expectations 4.0.osexp","C:\Users\etp-cp-ping\Desktop\LocalPC-EXP",75,"no","mono","no",18,"no","white","no","yes",1050,NA,100,"psycho",37,0,37,"C:/Users/etp-cp-ping/Desktop/LocalPC-EXP/subject-11.csv","psycho",4,38,38,"Lentiform Loewenfeld","3.3.8","['vert', 'hori', 'hori', 'vert', 'vert', 'hori', 'vert', 'hori']","no",209,"None","yes",0,NA,2,"legacy",NA,1024,2,48000,-16,"experiment",11,"odd","red","no",5,"diamond",472241.2698,472345.0228,472345.0637,NA,480545.2967,NA,NA,160676.359999999,1860.95389999991,NA,160676.3814,612674.828,616162.5524,NA,NA,NA,NA,1861.03319999984,481195.8075,NA,NA,612674.8417,481566.6334,612674.7792,"New experiment",19,"[0]","dist_present",56,63,"yes","yes",1680,NA,NA,NA,NA,"NR","NR","lp",NA,NA,NA,NA,NA,NA,"practice",4,"R","in"
"39",1337.77889999968,62929.5319999981,62929.5319999981,29,29,"#000000","no",593427.9961,1,"neutral","psycho","psycho","psycho",0,"uniform",1,0,0,0,NA,0,0,NA,0,0,0,0,38,38,NA,NA,NA,NA,0,0,0,NA,38,0,38,73.2296414732588,"Wed Sep  1 11:30:53 2021","The main experiment item","yes","green","no","0","circle",NA,"pinging_target_expectations 4.0.osexp","C:\Users\etp-cp-ping\Desktop\LocalPC-EXP",75,"no","mono","no",18,"no","white","no","yes",1050,NA,100,"psycho",38,0,38,"C:/Users/etp-cp-ping/Desktop/LocalPC-EXP/subject-11.csv","psycho",4,39,39,"Lentiform Loewenfeld","3.3.8","['vert', 'hori', 'hori', 'hori', 'vert', 'vert', 'vert', 'hori']","no",209,"None","yes",0,NA,2,"legacy",NA,1024,2,48000,-16,"experiment",11,"odd","red","no",1,"diamond",472241.2698,472345.0228,472345.0637,NA,480545.2967,NA,NA,160676.359999999,1860.95389999991,NA,160676.3814,616193.3428,619298.5265,NA,NA,NA,NA,1861.03319999984,481195.8075,NA,NA,616193.357,481566.6334,616193.295399999,"New experiment",19,"[0]","dist_present",56,21,"yes","yes",1680,NA,NA,NA,NA,"NR","NR","lp",NA,"Left",NA,NA,NA,NA,"practice",5,"NR","in"
"40",1498.04440000025,64427.5763999983,64427.5763999983,30,30,"#000000","no",593427.9961,1,"neutral","psycho","psycho","psycho",0,"uniform",1,0,0,0,NA,0,0,NA,0,0,0,0,39,39,NA,NA,NA,NA,0,0,0,NA,39,0,39,73.2296414732588,"Wed Sep  1 11:30:53 2021","The main experiment item","yes","red","no","None","diamond",NA,"pinging_target_expectations 4.0.osexp","C:\Users\etp-cp-ping\Desktop\LocalPC-EXP",75,"no","mono","no",18,"no","white","no","yes",1050,NA,100,"psycho",39,0,39,"C:/Users/etp-cp-ping/Desktop/LocalPC-EXP/subject-11.csv","psycho",4,40,40,"Lentiform Loewenfeld","3.3.8","['vert', 'hori', 'hori', 'vert', 'vert', 'hori', 'hori', 'vert']","yes",109,"circles","yes",0,NA,2,"legacy",NA,1024,2,48000,-16,"experiment",11,"odd","green","no",3,"circle",472241.2698,472345.0228,472345.0637,NA,480545.2967,NA,NA,160676.359999999,1860.95389999991,NA,160676.3814,619330.4606,622610.4753,NA,NA,NA,NA,1861.03319999984,481195.8075,NA,NA,619330.4747,481566.6334,619330.4109,"New experiment",19,"[0]","dist_absent",56,49,"yes","yes",1680,NA,NA,NA,NA,"NR","NR","lp",NA,"Left",NA,NA,NA,NA,"practice",1,"NR","in"
"41",2000.11649999942,66427.6928999978,66427.6928999978,30,30,"#000000","no",623530.110799999,1,"neutral","psycho","psycho","psycho",0,"uniform",0,0,0,0,NA,0,0,NA,0,0,0,0,40,40,NA,NA,NA,NA,0,0,0,NA,40,0,40,73.2296414732588,"Wed Sep  1 11:30:53 2021","The main experiment item","yes","green","no","5","circle",NA,"pinging_target_expectations 4.0.osexp","C:\Users\etp-cp-ping\Desktop\LocalPC-EXP",75,"no","mono","no",18,"no","white","no","yes",1050,NA,100,"psycho",40,0,40,"C:/Users/etp-cp-ping/Desktop/LocalPC-EXP/subject-11.csv","psycho",5,41,41,"Lentiform Loewenfeld","3.3.8","['hori', 'vert', 'hori', 'hori', 'vert', 'vert', 'vert', 'hori']","no",209,"None","yes",0,NA,2,"legacy",NA,1024,2,48000,-16,"experiment",11,"odd","red","no",6,"diamond",472241.2698,472345.0228,472345.0637,NA,480545.2967,NA,NA,160676.359999999,1860.95389999991,NA,160676.3814,622641.3083,626603.2188,NA,NA,NA,NA,1861.03319999984,481195.8075,NA,NA,622641.3246,481566.6334,622641.2586,"New experiment",19,"[0]","dist_present",56,76,"yes","yes",1680,NA,NA,NA,NA,"NR","NR","lp",NA,NA,NA,NA,NA,NA,"practice",3,"NR","in"
"42",1898.51219999942,68326.2050999972,68326.2050999972,31,31,"#000000","no",623530.110799999,1,"neutral","psycho","psycho","psycho",0,"uniform",1,0,0,0,NA,0,0,NA,0,0,0,0,41,41,NA,NA,NA,NA,0,0,0,NA,41,0,41,73.2296414732588,"Wed Sep  1 11:30:53 2021","The main experiment item","yes","red","no","1","diamond",NA,"pinging_target_expectations 4.0.osexp","C:\Users\etp-cp-ping\Desktop\LocalPC-EXP",75,"no","mono","no",18,"no","white","no","yes",1050,NA,100,"psycho",41,0,41,"C:/Users/etp-cp-ping/Desktop/LocalPC-EXP/subject-11.csv","psycho",5,42,42,"Lentiform Loewenfeld","3.3.8","['vert', 'vert', 'hori', 'hori', 'vert', 'hori', 'hori', 'vert']","yes",109,"circles","yes",0,NA,2,"legacy",NA,1024,2,48000,-16,"experiment",11,"odd","green","no",6,"circle",472241.2698,472345.0228,472345.0637,NA,480545.2967,NA,NA,160676.359999999,1860.95389999991,NA,160676.3814,626633.7042,630370.5802,NA,NA,NA,NA,1861.03319999984,481195.8075,NA,NA,626633.7187,481566.6334,626633.6376,"New experiment",19,"[0]","dist_present",56,72,"yes","yes",1680,NA,NA,NA,NA,"R","NR","lp",NA,NA,NA,NA,NA,NA,"practice",6,"NR","in"
"43",1705.04419999989,70031.2492999971,70031.2492999971,32,32,"#000000","no",630937.2756,1,"neutral","psycho","psycho","psycho",0,"uniform",1,0,0,0,NA,0,0,NA,0,0,0,0,42,42,NA,NA,NA,NA,0,0,0,NA,42,0,42,73.2296414732588,"Wed Sep  1 11:30:53 2021","The main experiment item","yes","red","no","None","circle",NA,"pinging_target_expectations 4.0.osexp","C:\Users\etp-cp-ping\Desktop\LocalPC-EXP",75,"no","mono","no",18,"no","white","no","yes",1050,NA,100,"psycho",42,0,42,"C:/Users/etp-cp-ping/Desktop/LocalPC-EXP/subject-11.csv","psycho",6,43,43,"Lentiform Loewenfeld","3.3.8","['vert', 'hori', 'vert', 'hori', 'vert', 'vert', 'hori', 'hori']","no",209,"None","yes",0,NA,2,"legacy",NA,1024,2,48000,-16,"experiment",11,"odd","green","no",4,"diamond",472241.2698,472345.0228,472345.0637,NA,480545.2967,NA,NA,160676.359999999,1860.95389999991,NA,160676.3814,630401.3903,634210.5186,NA,NA,NA,NA,1861.03319999984,481195.8075,NA,NA,630401.4042,481566.6334,630401.3423,"New experiment",19,"[0]","dist_absent",56,59,"yes","yes",1680,NA,NA,NA,NA,"NR","NR","lp",NA,NA,NA,NA,NA,NA,"practice",6,"R","in"
"44",1297.52860000008,71328.7778999971,71328.7778999971,33,33,"#000000","no",630937.2756,1,"neutral","psycho","psycho","psycho",0,"uniform",1,0,0,0,NA,0,0,NA,0,0,0,0,43,43,NA,NA,NA,NA,0,0,0,NA,43,0,43,73.2296414732588,"Wed Sep  1 11:30:53 2021","The main experiment item","yes","green","no","7","circle",NA,"pinging_target_expectations 4.0.osexp","C:\Users\etp-cp-ping\Desktop\LocalPC-EXP",75,"no","mono","no",18,"no","white","no","yes",1050,NA,100,"psycho",43,0,43,"C:/Users/etp-cp-ping/Desktop/LocalPC-EXP/subject-11.csv","psycho",6,44,44,"Lentiform Loewenfeld","3.3.8","['hori', 'hori', 'hori', 'vert', 'vert', 'hori', 'vert', 'vert']","yes",109,"circles","yes",0,NA,2,"legacy",NA,1024,2,48000,-16,"experiment",11,"odd","red","no",3,"diamond",472241.2698,472345.0228,472345.0637,NA,480545.2967,NA,NA,160676.359999999,1860.95389999991,NA,160676.3814,634242.579,637346.513099999,NA,NA,NA,NA,1861.03319999984,481195.8075,NA,NA,634242.5932,481566.6334,634242.5303,"New experiment",19,"[0]","dist_present",56,48,"yes","yes",1680,NA,NA,NA,NA,"NR","NR","lp",NA,NA,NA,NA,NA,NA,"practice",4,"NR","in"
"45",1838.3344999993,73167.1123999964,73167.1123999964,34,34,"#000000","no",630937.2756,1,"neutral","psycho","psycho","psycho",0,"uniform",1,0,0,0,NA,0,0,NA,0,0,0,0,44,44,NA,NA,NA,NA,0,0,0,NA,44,0,44,73.2296414732588,"Wed Sep  1 11:30:53 2021","The main experiment item","yes","red","no","6","circle",NA,"pinging_target_expectations 4.0.osexp","C:\Users\etp-cp-ping\Desktop\LocalPC-EXP",75,"no","mono","no",18,"no","white","no","yes",1050,NA,100,"psycho",44,0,44,"C:/Users/etp-cp-ping/Desktop/LocalPC-EXP/subject-11.csv","psycho",6,45,45,"Lentiform Loewenfeld","3.3.8","['hori', 'vert', 'hori', 'vert', 'vert', 'vert', 'hori', 'hori']","no",209,"None","yes",0,NA,2,"legacy",NA,1024,2,48000,-16,"experiment",11,"odd","green","no",3,"diamond",472241.2698,472345.0228,472345.0637,NA,480545.2967,NA,NA,160676.359999999,1860.95389999991,NA,160676.3814,637377.5202,641282.4744,NA,NA,NA,NA,1861.03319999984,481195.8075,NA,NA,637377.534499999,481566.6334,637377.470599999,"New experiment",19,"[0, 73.44718912146263, 74.49740606721004, 74.04625897381828, 73.87826496790619, 73.97549120040013, 73.42132153906736, 75.0734083374728, 73.5965485136714, 74.36370234900102, 74.36809470964536, 74.36182708974611, 74.5821694508815, 74.00876223264227, 73.51257063095856, 73.78295001814132, 74.36159575902651, 74.38612795888484, 73.33108825483812, 74.00716339081194, 73.95579604931007, 73.82959958844869, 73.53722663503505, 73.85233053095988, 73.4537536866892, 73.60960037809538, 73.36768191287095, 73.3051039934091, 73.77870295199075, 73.56152853377094, 73.38020130029516, 74.17601519675378, 73.58431542829605, 74.33875167098248, 73.46738411241351, 73.27389345404445, 74.22046744723612, 73.85243518407152, 73.63398323008691, 74.0707681302587, 75.27792646027676, 73.73608178551471, 73.57063457307218, 73.85914469864831, 74.34260743362402, 73.85914469864831, 73.31337865122572, 73.76313442364011, 73.67289906831175, 73.2708006026091, 74.92831950581561, 73.23456806200677, 73.50628017454216, 73.80422387583694, 73.46050678514035]","dist_present",56,47,"yes","yes",1680,NA,NA,NA,NA,"R","NR","lp",NA,NA,NA,NA,NA,NA,"practice",3,"NR","in"
"46",1204.79829999933,74371.9106999958,74371.9106999958,35,35,"#000000","no",643362.6359,1,"neutral","psycho","psycho","psycho",0,"uniform",1,0,0,0,NA,0,0,NA,0,0,0,0,45,45,NA,NA,NA,NA,0,0,0,NA,45,0,45,73.2296414732588,"Wed Sep  1 11:30:53 2021","The main experiment item","yes","green","no","7","diamond",NA,"pinging_target_expectations 4.0.osexp","C:\Users\etp-cp-ping\Desktop\LocalPC-EXP",75,"no","mono","no",18,"no","white","no","yes",1050,NA,100,"psycho",45,0,45,"C:/Users/etp-cp-ping/Desktop/LocalPC-EXP/subject-11.csv","psycho",7,46,46,"Lentiform Loewenfeld","3.3.8","['hori', 'vert', 'vert', 'hori', 'hori', 'vert', 'hori', 'vert']","yes",109,"diamond","yes",0,NA,2,"legacy",NA,1024,2,48000,-16,"experiment",11,"odd","red","no",2,"circle",472241.2698,472345.0228,472345.0637,NA,480545.2967,NA,NA,160676.359999999,1860.95389999991,NA,160676.3814,641313.137,644546.5975,NA,NA,NA,NA,1861.03319999984,481195.8075,NA,NA,641313.1509,481566.6334,641313.0888,"New experiment",19,"[0, 74.30025700438907, 95.67468333754246, 116.57000273273555, 138.56942009177425, 167.17229295618264, 191.6024153332196, 222.58771717221427, 236.6704646247274, 271.2652964076994, 294.93429415076787, 325.82401233512593, 358.4541598269797, 395.2225594942726, 429.7158635667057, 462.85530226514817, 484.84342926945175, 530.5995173297165, 561.6355579911229, 562.2706074945129, 629.7164863637009, 700.1894541020628, 734.6879660183034, 734.9117446830913, 746.6149571716746, 854.6757570234196, 882.9854863288443]","dist_present",56,38,"yes","no",1680,NA,NA,NA,NA,"NR","NR","lp",NA,NA,NA,NA,NA,NA,"practice",3,"R","in"
"47",872.314899999765,75244.2255999955,75244.2255999955,36,36,"#000000","no",643362.6359,1,"neutral","psycho","psycho","psycho",0,"uniform",1,0,0,0,NA,0,0,NA,0,0,0,0,46,46,NA,NA,NA,NA,0,0,0,NA,46,0,46,73.2296414732588,"Wed Sep  1 11:30:53 2021","The main experiment item","yes","green","no","0","diamond",NA,"pinging_target_expectations 4.0.osexp","C:\Users\etp-cp-ping\Desktop\LocalPC-EXP",75,"no","mono","no",18,"no","white","no","yes",1050,NA,100,"psycho",46,0,46,"C:/Users/etp-cp-ping/Desktop/LocalPC-EXP/subject-11.csv","psycho",7,47,47,"Lentiform Loewenfeld","3.3.8","['hori', 'vert', 'vert', 'hori', 'hori', 'hori', 'vert', 'vert']","no",209,"None","yes",0,NA,2,"legacy",NA,1024,2,48000,-16,"experiment",11,"odd","red","no",2,"circle",472241.2698,472345.0228,472345.0637,NA,480545.2967,NA,NA,160676.359999999,1860.95389999991,NA,160676.3814,644577.6494,647202.4364,NA,NA,NA,NA,1861.03319999984,481195.8075,NA,NA,644577.6632,481566.6334,644577.601,"New experiment",19,"[0, 74.56568560488606, 74.30241636965333, 76.41055938288707, 78.83652829342576, 79.33824419652917, 77.38372839879574, 77.23341245859851, 74.4526564124826]","dist_present",56,31,"yes","yes",1680,NA,NA,NA,NA,"R","NR","lp",NA,"Left",NA,"Left",NA,NA,"practice",2,"NR","in"
"48",590.669399999548,75834.8949999951,75834.8949999951,37,37,"#000000","no",643362.6359,1,"neutral","psycho","psycho","psycho",0,"uniform",1,0,0,0,NA,0,0,NA,0,0,0,0,47,47,NA,NA,NA,NA,0,0,0,NA,47,0,47,73.2296414732588,"Wed Sep  1 11:30:53 2021","The main experiment item","yes","green","no","None","circle",NA,"pinging_target_expectations 4.0.osexp","C:\Users\etp-cp-ping\Desktop\LocalPC-EXP",75,"no","mono","no",18,"no","white","no","yes",1050,NA,100,"psycho",47,0,47,"C:/Users/etp-cp-ping/Desktop/LocalPC-EXP/subject-11.csv","psycho",7,48,48,"Lentiform Loewenfeld","3.3.8","['hori', 'vert', 'hori', 'hori', 'hori', 'vert', 'vert', 'vert']","yes",109,"circles","yes",0,NA,2,"legacy",NA,1024,2,48000,-16,"experiment",11,"odd","red","no",2,"diamond",472241.2698,472345.0228,472345.0637,NA,480545.2967,NA,NA,160676.359999999,1860.95389999991,NA,160676.3814,647233.330399999,649810.493399999,NA,NA,NA,NA,1861.03319999984,481195.8075,NA,NA,647233.3446,481566.6334,647233.280599999,"New experiment",19,"[0]","dist_absent",56,39,"yes","yes",1680,NA,NA,NA,NA,"R","NR","lp",NA,"Left",NA,"Left",NA,NA,"practice",2,"R","in"
"49",1362.11749999993,77197.012499995,77197.012499995,38,38,"#000000","no",643362.6359,1,"neutral","psycho","psycho","psycho",0,"uniform",1,0,0,0,NA,0,0,NA,0,0,0,0,48,48,NA,NA,NA,NA,0,0,0,NA,48,0,48,73.2296414732588,"Wed Sep  1 11:30:53 2021","The main experiment item","yes","red","no","0","diamond",NA,"pinging_target_expectations 4.0.osexp","C:\Users\etp-cp-ping\Desktop\LocalPC-EXP",75,"no","mono","no",18,"no","white","no","yes",1050,NA,100,"psycho",48,0,48,"C:/Users/etp-cp-ping/Desktop/LocalPC-EXP/subject-11.csv","psycho",7,49,49,"Lentiform Loewenfeld","3.3.8","['hori', 'vert', 'hori', 'vert', 'vert', 'vert', 'hori', 'hori']","yes",109,"circles","yes",0,NA,2,"legacy",NA,1024,2,48000,-16,"experiment",11,"odd","green","no",7,"circle",472241.2698,472345.0228,472345.0637,NA,480545.2967,NA,NA,160676.359999999,1860.95389999991,NA,160676.3814,649841.7966,653154.5071,NA,NA,NA,NA,1861.03319999984,481195.8075,NA,NA,649841.8107,481566.6334,649841.7467,"New experiment",19,"[0]","dist_present",56,81,"yes","yes",1680,NA,NA,NA,NA,"NR","NR","lp",NA,"Right",NA,NA,NA,NA,"practice",2,"R","in"
"50",667.580400000559,77864.5928999956,77864.5928999956,39,39,"#000000","no",653801.7456,1,"neutral","psycho","psycho","psycho",0,"uniform",1,0,0,0,NA,0,0,NA,0,0,0,0,49,49,NA,NA,NA,NA,0,0,0,NA,49,0,49,73.2296414732588,"Wed Sep  1 11:30:53 2021","The main experiment item","yes","green","no","None","circle",NA,"pinging_target_expectations 4.0.osexp","C:\Users\etp-cp-ping\Desktop\LocalPC-EXP",75,"no","mono","no",18,"no","white","no","yes",1050,NA,100,"psycho",49,0,49,"C:/Users/etp-cp-ping/Desktop/LocalPC-EXP/subject-11.csv","psycho",8,50,50,"Lentiform Loewenfeld","3.3.8","['hori', 'vert', 'hori', 'hori', 'hori', 'vert', 'vert', 'vert']","yes",109,"diamond","yes",0,NA,2,"legacy",NA,1024,2,48000,-16,"experiment",11,"odd","red","no",0,"diamond",472241.2698,472345.0228,472345.0637,NA,480545.2967,NA,NA,160676.359999999,1860.95389999991,NA,160676.3814,653185.1686,655906.51,NA,NA,NA,NA,1861.03319999984,481195.8075,NA,NA,653185.1826,481566.6334,653185.119199999,"New experiment",19,"[0]","dist_absent",56,19,"yes","yes",1680,NA,NA,NA,NA,"NR","NR","lp",NA,NA,NA,NA,NA,NA,"practice",7,"NR","in"
"51",1538.1963999999,79402.7892999955,79402.7892999955,40,40,"#000000","no",653801.7456,1,"neutral","psycho","psycho","psycho",0,"uniform",1,0,0,0,NA,0,0,NA,0,0,0,0,50,50,NA,NA,NA,NA,0,0,0,NA,50,0,50,73.2296414732588,"Wed Sep  1 11:30:53 2021","The main experiment item","yes","green","no","2","diamond",NA,"pinging_target_expectations 4.0.osexp","C:\Users\etp-cp-ping\Desktop\LocalPC-EXP",75,"no","mono","no",18,"no","white","no","yes",1050,NA,100,"psycho",50,0,50,"C:/Users/etp-cp-ping/Desktop/LocalPC-EXP/subject-11.csv","psycho",8,51,51,"Lentiform Loewenfeld","3.3.8","['vert', 'hori', 'vert', 'hori', 'hori', 'vert', 'hori', 'vert']","no",209,"None","yes",0,NA,2,"legacy",NA,1024,2,48000,-16,"experiment",11,"odd","red","no",7,"circle",472241.2698,472345.0228,472345.0637,NA,480545.2967,NA,NA,160676.359999999,1860.95389999991,NA,160676.3814,655937.389799999,659410.4839,NA,NA,NA,NA,1861.03319999984,481195.8075,NA,NA,655937.4037,481566.6334,655937.3398,"New experiment",19,"[0]","dist_present",56,83,"yes","yes",1680,NA,NA,NA,NA,"NR","NR","lp",NA,NA,NA,NA,NA,NA,"practice",0,"NR","in"
"52",2000.51259999967,81403.3018999951,81403.3018999951,40,40,"#000000","no",653801.7456,1,"neutral","psycho","psycho","psycho",0,"uniform",0,0,0,0,NA,0,0,NA,0,0,0,0,51,51,NA,NA,NA,NA,0,0,0,NA,51,0,51,73.2296414732588,"Wed Sep  1 11:30:53 2021","The main experiment item","yes","red","no","3","circle",NA,"pinging_target_expectations 4.0.osexp","C:\Users\etp-cp-ping\Desktop\LocalPC-EXP",75,"no","mono","no",18,"no","white","no","yes",1050,NA,100,"psycho",51,0,51,"C:/Users/etp-cp-ping/Desktop/LocalPC-EXP/subject-11.csv","psycho",8,52,52,"Lentiform Loewenfeld","3.3.8","['vert', 'hori', 'hori', 'hori', 'vert', 'vert', 'hori', 'vert']","no",209,"None","yes",0,NA,2,"legacy",NA,1024,2,48000,-16,"experiment",11,"odd","green","no",0,"diamond",472241.2698,472345.0228,472345.0637,NA,480545.2967,NA,NA,160676.359999999,1860.95389999991,NA,160676.3814,659441.235599999,663327.1871,NA,NA,NA,NA,1861.03319999984,481195.8075,NA,NA,659441.2499,481566.6334,659441.1857,"New experiment",19,"[0]","dist_present",56,14,"yes","yes",1680,NA,NA,NA,NA,"NR","NR","lp","Left",NA,NA,NA,NA,NA,"practice",7,"NR","in"
"53",1391.01449999993,82794.3163999951,82794.3163999951,41,41,"#000000","no",653801.7456,1,"neutral","psycho","psycho","psycho",0,"uniform",1,0,0,0,NA,0,0,NA,0,0,0,0,52,52,NA,NA,NA,NA,0,0,0,NA,52,0,52,73.2296414732588,"Wed Sep  1 11:30:53 2021","The main experiment item","yes","green","no","None","diamond",NA,"pinging_target_expectations 4.0.osexp","C:\Users\etp-cp-ping\Desktop\LocalPC-EXP",75,"no","mono","no",18,"no","white","no","yes",1050,NA,100,"psycho",52,0,52,"C:/Users/etp-cp-ping/Desktop/LocalPC-EXP/subject-11.csv","psycho",8,53,53,"Lentiform Loewenfeld","3.3.8","['hori', 'vert', 'vert', 'hori', 'hori', 'hori', 'vert', 'vert']","yes",109,"diamond","yes",0,NA,2,"legacy",NA,1024,2,48000,-16,"experiment",11,"odd","red","no",1,"circle",472241.2698,472345.0228,472345.0637,NA,480545.2967,NA,NA,160676.359999999,1860.95389999991,NA,160676.3814,663357.6996,666402.5315,NA,NA,NA,NA,1861.03319999984,481195.8075,NA,NA,663357.7138,481566.6334,663357.649099999,"New experiment",19,"[0]","dist_absent",56,29,"yes","yes",1680,NA,NA,NA,NA,"NR","NR","lp",NA,"Left",NA,NA,NA,NA,"practice",0,"NR","in"
"54",1107.40410000016,83901.7204999952,83901.7204999952,42,42,"#000000","no",653801.7456,1,"neutral","psycho","psycho","psycho",0,"uniform",1,0,0,0,NA,0,0,NA,0,0,0,0,53,53,NA,NA,NA,NA,0,0,0,NA,53,0,53,73.2296414732588,"Wed Sep  1 11:30:53 2021","The main experiment item","yes","red","no","2","diamond",NA,"pinging_target_expectations 4.0.osexp","C:\Users\etp-cp-ping\Desktop\LocalPC-EXP",75,"no","mono","no",18,"no","white","no","yes",1050,NA,100,"psycho",53,0,53,"C:/Users/etp-cp-ping/Desktop/LocalPC-EXP/subject-11.csv","psycho",8,54,54,"Lentiform Loewenfeld","3.3.8","['vert', 'hori', 'hori', 'vert', 'hori', 'vert', 'hori', 'vert']","yes",109,"circles","yes",0,NA,2,"legacy",NA,1024,2,48000,-16,"experiment",11,"odd","green","no",7,"circle",472241.2698,472345.0228,472345.0637,NA,480545.2967,NA,NA,160676.359999999,1860.95389999991,NA,160676.3814,666433.2162,669410.4968,NA,NA,NA,NA,1861.03319999984,481195.8075,NA,NA,666433.2305,481566.6334,666433.1673,"New experiment",19,"[0]","dist_present",56,83,"yes","yes",1680,NA,NA,NA,NA,"NR","NR","lp",NA,NA,NA,NA,NA,NA,"practice",1,"NR","in"
"55",2000.80520000029,85902.5256999955,85902.5256999955,42,42,"#000000","no",653801.7456,1,"neutral","psycho","psycho","psycho",0,"uniform",0,0,0,0,NA,0,0,NA,0,0,0,0,54,54,NA,NA,NA,NA,0,0,0,NA,54,0,54,73.2296414732588,"Wed Sep  1 11:30:53 2021","The main experiment item","yes","green","no","7","diamond",NA,"pinging_target_expectations 4.0.osexp","C:\Users\etp-cp-ping\Desktop\LocalPC-EXP",75,"no","mono","no",18,"no","white","no","yes",1050,NA,100,"psycho",54,0,54,"C:/Users/etp-cp-ping/Desktop/LocalPC-EXP/subject-11.csv","psycho",8,55,55,"Lentiform Loewenfeld","3.3.8","['vert', 'vert', 'vert', 'hori', 'hori', 'hori', 'vert', 'hori']","no",209,"None","yes",0,NA,2,"legacy",NA,1024,2,48000,-16,"experiment",11,"odd","red","no",5,"circle",472241.2698,472345.0228,472345.0637,NA,480545.2967,NA,NA,160676.359999999,1860.95389999991,NA,160676.3814,669441.3033,673562.8808,NA,NA,NA,NA,1861.03319999984,481195.8075,NA,NA,669441.3174,481566.6334,669441.2501,"New experiment",19,"[0]","dist_present",56,68,"yes","yes",1680,NA,NA,NA,NA,"NR","NR","lp",NA,NA,NA,NA,NA,NA,"practice",7,"NR","in"
"56",1197.32279999973,87099.8484999952,87099.8484999952,43,43,"#000000","no",653801.7456,1,"neutral","psycho","psycho","psycho",0,"uniform",1,0,0,0,NA,0,0,NA,0,0,0,0,55,55,NA,NA,NA,NA,0,0,0,NA,55,0,55,73.2296414732588,"Wed Sep  1 11:30:53 2021","The main experiment item","yes","green","no","6","diamond",NA,"pinging_target_expectations 4.0.osexp","C:\Users\etp-cp-ping\Desktop\LocalPC-EXP",75,"no","mono","no",18,"no","white","no","yes",1050,NA,100,"psycho",55,0,55,"C:/Users/etp-cp-ping/Desktop/LocalPC-EXP/subject-11.csv","psycho",8,56,56,"Lentiform Loewenfeld","3.3.8","['hori', 'hori', 'hori', 'hori', 'vert', 'vert', 'vert', 'vert']","no",209,"None","yes",0,NA,2,"legacy",NA,1024,2,48000,-16,"experiment",11,"odd","red","no",4,"circle",472241.2698,472345.0228,472345.0637,NA,480545.2967,NA,NA,160676.359999999,1860.95389999991,NA,160676.3814,673593.5287,676818.4866,NA,NA,NA,NA,1861.03319999984,481195.8075,NA,NA,673593.5427,481566.6334,673593.4798,"New experiment",19,"[0]","dist_present",56,57,"yes","yes",1680,NA,NA,NA,NA,"NR","NR","lp","Right",NA,"Right",NA,NA,NA,"practice",5,"NR","in"
"57",2000.6618000007,2000.6618000007,89100.5102999959,0,43,"#000000","no",653801.7456,2,"bias","psycho","psycho","psycho",0,"uniform",0,0,1,1,NA,1,0,NA,0,0,1,0,56,56,NA,NA,NA,NA,0,1,1,NA,56,1,56,73.2296414732588,"Wed Sep  1 11:30:53 2021","The main experiment item","yes","red","yes","2","circle",NA,"pinging_target_expectations 4.0.osexp","C:\Users\etp-cp-ping\Desktop\LocalPC-EXP",75,"no","mono","no",18,"no","white","no","yes",1050,NA,2,"psycho",0,1,0,"C:/Users/etp-cp-ping/Desktop/LocalPC-EXP/subject-11.csv","psycho",0,57,1,"Lentiform Loewenfeld","3.3.8","['vert', 'vert', 'hori', 'vert', 'hori', 'hori', 'hori', 'vert']","no",202,"None","no",0,NA,2,"legacy",NA,1024,2,48000,-16,"experiment",11,"odd","green","no",4,"diamond",472241.2698,741111.5865,741111.6352,NA,756374.5537,NA,NA,160676.359999999,1860.95389999991,677355.2293,160676.3814,789541.8209,793564.3787,NA,NA,NA,NA,1861.03319999984,789166.1211,676848.5178,NA,789541.8362,789537.5376,789541.7751,"New experiment",19,"[0]","dist_present",56,53,"yes","yes",1680,-3.58050087675357,-5.77310614979965,"more away","False","NR","NR","lp","Left",NA,"Left",NA,-2,0,"first",999,"NR","in"
"58",1126.89839999983,3127.56020000053,90227.4086999958,0,43,"#000000","no",653801.7456,2,"bias","psycho","psycho","psycho",0,"uniform",0,0,1,1,NA,1,0,NA,0,0,1,0,57,57,NA,NA,NA,NA,0,1,1,NA,57,1,57,73.2296414732588,"Wed Sep  1 11:30:53 2021","The main experiment item","yes","red","yes","2","diamond",NA,"pinging_target_expectations 4.0.osexp","C:\Users\etp-cp-ping\Desktop\LocalPC-EXP",75,"no","mono","no",18,"no","white","no","yes",1050,NA,2,"psycho",1,1,1,"C:/Users/etp-cp-ping/Desktop/LocalPC-EXP/subject-11.csv","psycho",0,58,2,"Lentiform Loewenfeld","3.3.8","['hori', 'hori', 'hori', 'vert', 'hori', 'vert', 'vert', 'vert']","yes",102,"circles","no",0,NA,2,"legacy",NA,1024,2,48000,-16,"experiment",11,"odd","green","no",3,"circle",472241.2698,741111.5865,741111.6352,NA,756374.5537,NA,NA,160676.359999999,1860.95389999991,677355.2293,160676.3814,793598.777,796546.6368,NA,NA,NA,NA,1861.03319999984,789166.1211,676848.5178,NA,793598.7909,789537.5376,793598.729599999,"New experiment",19,"[0]","dist_present",56,43,"yes","yes",1680,21.0809991232464,-29.1169811497997,"more toward","False","NR","R","lp",NA,NA,NA,NA,-1,0,"first",4,"NR","in"
"59",2000.77909999981,5128.33930000034,92228.1877999956,0,43,"#000000","no",797371.259699999,2,"bias","psycho","psycho","psycho",0,"uniform",0,0,1,1,NA,1,0,NA,0,0,1,0,58,58,NA,NA,NA,NA,0,1,1,NA,58,1,58,73.2296414732588,"Wed Sep  1 11:30:53 2021","The main experiment item","yes","green","no","5","circle",NA,"pinging_target_expectations 4.0.osexp","C:\Users\etp-cp-ping\Desktop\LocalPC-EXP",75,"no","mono","no",18,"no","white","no","yes",1050,NA,2,"psycho",2,1,2,"C:/Users/etp-cp-ping/Desktop/LocalPC-EXP/subject-11.csv","psycho",1,59,3,"Lentiform Loewenfeld","3.3.8","['hori', 'hori', 'vert', 'vert', 'hori', 'vert', 'vert', 'hori']","no",202,"None","no",0,NA,2,"legacy",NA,1024,2,48000,-16,"experiment",11,"odd","red","yes",2,"diamond",472241.2698,741111.5865,741111.6352,NA,756374.5537,NA,NA,160676.359999999,1860.95389999991,677355.2293,160676.3814,796577.8782,800545.5415,NA,NA,NA,NA,1861.03319999984,789166.1211,676848.5178,NA,796577.8922,789537.5376,796577.8296,"New experiment",19,"[0]","dist_present",56,36,"yes","yes",1680,0.424749123246368,-36.8647936497996,"more away","False","NR","NR","lp",NA,NA,NA,NA,0,-3,"first",3,"NR","ex"
"60",1068.74150000012,6197.08080000046,93296.9292999957,1,44,"#000000","no",797371.259699999,2,"bias","psycho","psycho","psycho",0,"uniform",1,0,1,1,NA,1,0,NA,0,0,1,0,59,59,NA,NA,NA,NA,0,1,1,NA,59,1,59,73.2296414732588,"Wed Sep  1 11:30:53 2021","The main experiment item","yes","red","no","1","circle",NA,"pinging_target_expectations 4.0.osexp","C:\Users\etp-cp-ping\Desktop\LocalPC-EXP",75,"no","mono","no",18,"no","white","no","yes",1050,NA,2,"psycho",3,1,3,"C:/Users/etp-cp-ping/Desktop/LocalPC-EXP/subject-11.csv","psycho",1,60,4,"Lentiform Loewenfeld","3.3.8","['hori', 'hori', 'vert', 'hori', 'vert', 'hori', 'vert', 'vert']","yes",102,"diamond","no",0,NA,2,"legacy",NA,1024,2,48000,-16,"experiment",11,"odd","green","no",6,"diamond",472241.2698,741111.5865,741111.6352,NA,756374.5537,NA,NA,160676.359999999,1860.95389999991,677355.2293,160676.3814,800576.178599999,803794.6559,NA,NA,NA,NA,1861.03319999984,789166.1211,676848.5178,NA,800576.1926,789537.5376,800576.1293,"New experiment",19,"[0]","dist_present",56,72,"yes","yes",1680,11.6153116232463,-16.2934186497996,"more toward","False","NR","NR","hp",NA,NA,NA,NA,4,1,"first",2,"NR","in"
"61",1679.40769999952,7876.48849999998,94976.3369999952,2,45,"#000000","no",797371.259699999,2,"bias","psycho","psycho","psycho",0,"uniform",1,0,1,1,NA,1,0,NA,0,0,1,0,60,60,NA,NA,NA,NA,0,1,1,NA,60,1,60,73.2296414732588,"Wed Sep  1 11:30:53 2021","The main experiment item","yes","red","no","None","diamond",NA,"pinging_target_expectations 4.0.osexp","C:\Users\etp-cp-ping\Desktop\LocalPC-EXP",75,"no","mono","no",18,"no","white","no","yes",1050,NA,2,"psycho",4,1,4,"C:/Users/etp-cp-ping/Desktop/LocalPC-EXP/subject-11.csv","psycho",1,61,5,"Lentiform Loewenfeld","3.3.8","['hori', 'vert', 'vert', 'vert', 'hori', 'vert', 'hori', 'hori']","yes",102,"diamond","no",0,NA,2,"legacy",NA,1024,2,48000,-16,"experiment",11,"odd","green","no",7,"circle",472241.2698,741111.5865,741111.6352,NA,756374.5537,NA,NA,160676.359999999,1860.95389999991,677355.2293,160676.3814,803825.7419,807570.6223,NA,NA,NA,NA,1861.03319999984,789166.1211,676848.5178,NA,803825.7561,789537.5376,803825.6929,"New experiment",19,"[0, 74.26066258997105, 74.95343672576053, 75.60488066081788, 75.52614107605413, 76.6219440471915, 76.58829987016676, 77.88823610930632, 77.04403057008813, 75.73546452724932, 76.71270320493186, 77.43572279349455, 78.08984272219779, 74.06784749616793, 74.40967088419312, 74.53239192652656, 73.38078030695218, 73.63869371407031, 75.275750175294, 74.62170104334467, 74.13338938283313, 74.07198806082661, 73.28848211914932, 73.85477275367106, 74.08370987833077, 73.94194056792944, 73.57008384070744, 74.28924137637625, 74.75425878532376, 74.75914772425733, 74.62742104237378, 73.26835565862083, 75.8973465406707, 73.37744885181004, 73.31206868779, 74.21028657336808, 73.66097084269546, 73.79010631540898, 73.49667054400985, 73.91953761199856, 74.17229791392693, 73.48539918952413, 73.55033353085997, 73.87834988042657, 73.74964014411701, 74.11430227861821, 74.34244018786768, 74.66634268191247, 73.80256031423423, 73.89050843192732, 74.34244018786768, 73.88667793829929, 73.4891016347473, 74.06053438847742, 73.86646003740653, 74.24893226755411, 73.60877392758175, 73.74566642624517, 73.95483633531647, 73.39591673425542, 73.98771890542662, 73.4205237692262, 73.55500424785858, 73.32973476019124, 73.24615522586342]","dist_absent",56,89,"yes","yes",1680,12.2583116232465,-10.8961686497997,"more toward","False","NR","NR","lp",NA,"Right",NA,NA,3,NA,"first",6,"NR","in"
"62",1747.77919999999,9624.26769999997,96724.1161999952,3,46,"#000000","no",797371.259699999,2,"bias","psycho","psycho","psycho",0,"uniform",1,0,1,1,NA,1,0,NA,0,0,1,0,61,61,NA,NA,NA,NA,0,1,1,NA,61,1,61,73.2296414732588,"Wed Sep  1 11:30:53 2021","The main experiment item","yes","green","no","7","diamond",NA,"pinging_target_expectations 4.0.osexp","C:\Users\etp-cp-ping\Desktop\LocalPC-EXP",75,"no","mono","no",18,"no","white","no","yes",1050,NA,2,"psycho",5,1,5,"C:/Users/etp-cp-ping/Desktop/LocalPC-EXP/subject-11.csv","psycho",1,62,6,"Lentiform Loewenfeld","3.3.8","['hori', 'vert', 'vert', 'hori', 'vert', 'vert', 'hori', 'hori']","no",202,"None","no",0,NA,2,"legacy",NA,1024,2,48000,-16,"experiment",11,"odd","red","yes",2,"circle",472241.2698,741111.5865,741111.6352,NA,756374.5537,NA,NA,160676.359999999,1860.95389999991,677355.2293,160676.3814,807601.5067,811314.706,NA,NA,NA,NA,1861.03319999984,789166.1211,676848.5178,NA,807601.5204,789537.5376,807601.4561,"New experiment",19,"[0]","dist_present",56,38,"yes","yes",1680,20.9608116232463,-17.7070436497997,"more toward","False","NR","NR","lp",NA,NA,NA,NA,0,3,"first",7,"NR","ex"
"63",1524.50500000024,11148.7727000002,98248.6211999955,4,47,"#000000","no",797371.259699999,2,"bias","psycho","psycho","psycho",0,"uniform",1,0,1,1,NA,1,0,NA,0,0,1,0,62,62,NA,NA,NA,NA,0,1,1,NA,62,1,62,73.2296414732588,"Wed Sep  1 11:30:53 2021","The main experiment item","yes","green","no","1","circle",NA,"pinging_target_expectations 4.0.osexp","C:\Users\etp-cp-ping\Desktop\LocalPC-EXP",75,"no","mono","no",18,"no","white","no","yes",1050,NA,2,"psycho",6,1,6,"C:/Users/etp-cp-ping/Desktop/LocalPC-EXP/subject-11.csv","psycho",1,63,7,"Lentiform Loewenfeld","3.3.8","['vert', 'vert', 'hori', 'hori', 'hori', 'vert', 'vert', 'hori']","no",202,"None","no",0,NA,2,"legacy",NA,1024,2,48000,-16,"experiment",11,"odd","red","no",6,"diamond",472241.2698,741111.5865,741111.6352,NA,756374.5537,NA,NA,160676.359999999,1860.95389999991,677355.2293,160676.3814,811345.6103,814738.6436,NA,NA,NA,NA,1861.03319999984,789166.1211,676848.5178,NA,811345.6243,789537.5376,811345.5583,"New experiment",19,"[0]","dist_present",56,72,"yes","yes",1680,12.7540616232463,1.80589385020031,"more toward","False","NR","NR","hp",NA,NA,NA,NA,4,1,"first",2,"NR","in"
"64",1692.03139999998,12840.8041000002,99940.6525999954,5,48,"#000000","no",815705.662599999,2,"bias","psycho","psycho","psycho",0,"uniform",1,0,1,1,NA,1,0,NA,0,0,1,0,63,63,NA,NA,NA,NA,0,1,1,NA,63,1,63,73.2296414732588,"Wed Sep  1 11:30:53 2021","The main experiment item","yes","green","yes","2","diamond",NA,"pinging_target_expectations 4.0.osexp","C:\Users\etp-cp-ping\Desktop\LocalPC-EXP",75,"no","mono","no",18,"no","white","no","yes",1050,NA,2,"psycho",7,1,7,"C:/Users/etp-cp-ping/Desktop/LocalPC-EXP/subject-11.csv","psycho",2,64,8,"Lentiform Loewenfeld","3.3.8","['vert', 'hori', 'vert', 'hori', 'hori', 'hori', 'vert', 'vert']","no",202,"None","no",0,NA,2,"legacy",NA,1024,2,48000,-16,"experiment",11,"odd","red","no",6,"circle",472241.2698,741111.5865,741111.6352,NA,756374.5537,NA,NA,160676.359999999,1860.95389999991,677355.2293,160676.3814,814769.599,818409.6416,NA,NA,NA,NA,1861.03319999984,789166.1211,676848.5178,NA,814769.6128,789537.5376,814769.5493,"New experiment",19,"[0, 80.89822267294763, 99.04906365897631, 120.63247254623414, 144.38671563667117, 171.3819549070839, 198.12374613907411, 229.06566133348912, 255.64041415170811, 289.4654556246738, 318.5771346436756, 350.2143377465883, 383.30281802404807, 418.3436164457385, 456.38936227743085, 491.0745339165214, 519.5852498816068, 560.1540239342978, 598.0324488748313, 643.9883236412995, 687.6330689401149, 714.3481799205219, 748.065053445898, 773.9595267236836, 829.1966395161438, 863.7888611011967, 863.6595849490221, 914.8491053296513, 1024.8562850271821, 1025.9189075854906, 1026.9423692927626, 1130.6850991279114, 1130.8441281485134, 1206.0352457633392, 1237.3292066276179]","dist_present",56,73,"yes","no",1680,7.80618662324639,-12.1737936497997,"more toward","False","R","NR","lp",NA,NA,NA,NA,4,0,"first",6,"NR","in"
"65",1127.16139999975,13967.9654999999,101067.813999995,6,49,"#000000","no",815705.662599999,2,"bias","psycho","psycho","psycho",0,"uniform",1,0,1,1,NA,1,0,NA,0,0,1,0,64,64,NA,NA,NA,NA,0,1,1,NA,64,1,64,73.2296414732588,"Wed Sep  1 11:30:53 2021","The main experiment item","yes","green","no","7","circle",NA,"pinging_target_expectations 4.0.osexp","C:\Users\etp-cp-ping\Desktop\LocalPC-EXP",75,"no","mono","no",18,"no","white","no","yes",1050,NA,2,"psycho",8,1,8,"C:/Users/etp-cp-ping/Desktop/LocalPC-EXP/subject-11.csv","psycho",2,65,9,"Lentiform Loewenfeld","3.3.8","['vert', 'hori', 'hori', 'vert', 'hori', 'hori', 'vert', 'vert']","no",202,"None","no",0,NA,2,"legacy",NA,1024,2,48000,-16,"experiment",11,"odd","red","no",5,"diamond",472241.2698,741111.5865,741111.6352,NA,756374.5537,NA,NA,160676.359999999,1860.95389999991,677355.2293,160676.3814,818440.4931,821474.5679,NA,NA,NA,NA,1861.03319999984,789166.1211,676848.5178,NA,818440.5072,789537.5376,818440.443,"New experiment",19,"[0]","dist_present",56,68,"yes","yes",1680,10.5083116232463,-8.00854364979968,"more toward","False","NR","NR","lp",NA,NA,NA,NA,-3,3,"first",6,"R","in"
"66",1158.71639999934,15126.6818999993,102226.530399995,7,50,"#000000","no",815705.662599999,2,"bias","psycho","psycho","psycho",0,"uniform",1,0,1,1,NA,1,0,NA,0,0,1,0,65,65,NA,NA,NA,NA,0,1,1,NA,65,1,65,73.2296414732588,"Wed Sep  1 11:30:53 2021","The main experiment item","yes","red","no","None","diamond",NA,"pinging_target_expectations 4.0.osexp","C:\Users\etp-cp-ping\Desktop\LocalPC-EXP",75,"no","mono","no",18,"no","white","no","yes",1050,NA,2,"psycho",9,1,9,"C:/Users/etp-cp-ping/Desktop/LocalPC-EXP/subject-11.csv","psycho",2,66,10,"Lentiform Loewenfeld","3.3.8","['vert', 'hori', 'hori', 'vert', 'vert', 'vert', 'hori', 'hori']","no",202,"None","no",0,NA,2,"legacy",NA,1024,2,48000,-16,"experiment",11,"odd","green","no",3,"circle",472241.2698,741111.5865,741111.6352,NA,756374.5537,NA,NA,160676.359999999,1860.95389999991,677355.2293,160676.3814,821505.5069,824594.684099999,NA,NA,NA,NA,1861.03319999984,789166.1211,676848.5178,NA,821505.5217,789537.5376,821505.4577,"New experiment",19,"[0]","dist_absent",56,49,"yes","yes",1680,23.2808741232464,-39.9459186497996,"more toward","False","NR","NR","lp",NA,"Left",NA,NA,-1,NA,"first",5,"NR","in"
"67",1220.73600000027,16347.4178999995,103447.266399995,8,51,"#000000","no",825677.8554,2,"bias","psycho","psycho","psycho",0,"uniform",1,0,1,1,NA,1,0,NA,0,0,1,0,66,66,NA,NA,NA,NA,0,1,1,NA,66,1,66,73.2296414732588,"Wed Sep  1 11:30:53 2021","The main experiment item","yes","green","no","None","circle",NA,"pinging_target_expectations 4.0.osexp","C:\Users\etp-cp-ping\Desktop\LocalPC-EXP",75,"no","mono","no",18,"no","white","no","yes",1050,NA,2,"psycho",10,1,10,"C:/Users/etp-cp-ping/Desktop/LocalPC-EXP/subject-11.csv","psycho",3,67,11,"Lentiform Loewenfeld","3.3.8","['hori', 'vert', 'hori', 'vert', 'vert', 'hori', 'hori', 'vert']","yes",102,"circles","no",0,NA,2,"legacy",NA,1024,2,48000,-16,"experiment",11,"odd","red","no",0,"diamond",472241.2698,741111.5865,741111.6352,NA,756374.5537,NA,NA,160676.359999999,1860.95389999991,677355.2293,160676.3814,824625.4084,827746.562599999,NA,NA,NA,NA,1861.03319999984,789166.1211,676848.5178,NA,824625.4223,789537.5376,824625.359799999,"New experiment",19,"[0, 75.01792975786788, 87.39105843693225, 101.7951308729172, 115.68873583298034, 137.982785287315, 158.27573174919388, 177.01085482142082, 202.10987286129432, 218.8782593018783, 248.8577628444226, 274.8330189508983, 300.18850704712844, 331.96797489363433, 353.41771653849133, 385.8117776246695, 399.65234063984593, 432.9682949434864, 460.86850367611936, 493.11706039631906, 528.3965483859557, 548.4455152347883, 593.0639386912507, 616.1478390099269, 660.9068118706688, 694.4939620368679, 698.2392943331687, 758.6020895122849, 784.2624606532829, 834.4129301830367, 858.3628720554574, 881.2497760451025, 979.5856991254797, 982.2352077579877, 1028.2581489140293, 1041.2123777441502, 1108.374650005761, 1201.8803036357567]","dist_absent",56,19,"yes","no",1680,NA,NA,"no hp","True","NR","R","lp",NA,NA,NA,NA,2,NA,"first",3,"NR","in"
"68",827.303499999223,17174.7213999988,104274.569899994,9,52,"#000000","no",825677.8554,2,"bias","psycho","psycho","psycho",0,"uniform",1,0,1,1,NA,1,0,NA,0,0,1,0,67,67,NA,NA,NA,NA,0,1,1,NA,67,1,67,73.2296414732588,"Wed Sep  1 11:30:53 2021","The main experiment item","yes","red","no","None","circle",NA,"pinging_target_expectations 4.0.osexp","C:\Users\etp-cp-ping\Desktop\LocalPC-EXP",75,"no","mono","no",18,"no","white","no","yes",1050,NA,2,"psycho",11,1,11,"C:/Users/etp-cp-ping/Desktop/LocalPC-EXP/subject-11.csv","psycho",3,68,12,"Lentiform Loewenfeld","3.3.8","['hori', 'hori', 'vert', 'hori', 'hori', 'vert', 'vert', 'vert']","yes",102,"diamond","no",0,NA,2,"legacy",NA,1024,2,48000,-16,"experiment",11,"odd","green","yes",2,"diamond",472241.2698,741111.5865,741111.6352,NA,756374.5537,NA,NA,160676.359999999,1860.95389999991,677355.2293,160676.3814,827777.480199999,830306.5287,NA,NA,NA,NA,1861.03319999984,789166.1211,676848.5178,NA,827777.494299999,789537.5376,827777.4312,"New experiment",19,"[0]","dist_absent",56,39,"yes","yes",1680,15.3635616232464,-16.0612311497996,"more toward","False","NR","R","lp",NA,"Left",NA,"Left",0,NA,"first",0,"NR","ex"
"69",1874.35189999989,19049.0732999987,106148.921799994,10,53,"#000000","no",825677.8554,2,"bias","psycho","psycho","psycho",0,"uniform",1,0,1,1,NA,1,0,NA,0,0,1,0,68,68,NA,NA,NA,NA,0,1,1,NA,68,1,68,73.2296414732588,"Wed Sep  1 11:30:53 2021","The main experiment item","yes","red","no","0","diamond",NA,"pinging_target_expectations 4.0.osexp","C:\Users\etp-cp-ping\Desktop\LocalPC-EXP",75,"no","mono","no",18,"no","white","no","yes",1050,NA,2,"psycho",12,1,12,"C:/Users/etp-cp-ping/Desktop/LocalPC-EXP/subject-11.csv","psycho",3,69,13,"Lentiform Loewenfeld","3.3.8","['vert', 'hori', 'vert', 'hori', 'hori', 'vert', 'hori', 'vert']","no",202,"None","no",0,NA,2,"legacy",NA,1024,2,48000,-16,"experiment",11,"odd","green","no",4,"circle",472241.2698,741111.5865,741111.6352,NA,756374.5537,NA,NA,160676.359999999,1860.95389999991,677355.2293,160676.3814,830337.4882,834066.7794,NA,NA,NA,NA,1861.03319999984,789166.1211,676848.5178,NA,830337.501999999,789537.5376,830337.4382,"New experiment",19,"[0]","dist_present",56,51,"yes","yes",1680,13.3461866232464,-24.8452311497996,"more toward","False","NR","NR","hp",NA,NA,NA,NA,-2,2,"first",2,"NR","in"
"70",1696.01939999941,20745.0926999981,107844.941199993,11,54,"#000000","no",834844.5636,2,"bias","psycho","psycho","psycho",0,"uniform",1,0,1,1,NA,1,0,NA,0,0,1,0,69,69,NA,NA,NA,NA,0,1,1,NA,69,1,69,73.2296414732588,"Wed Sep  1 11:30:53 2021","The main experiment item","yes","red","no","None","circle",NA,"pinging_target_expectations 4.0.osexp","C:\Users\etp-cp-ping\Desktop\LocalPC-EXP",75,"no","mono","no",18,"no","white","no","yes",1050,NA,2,"psycho",13,1,13,"C:/Users/etp-cp-ping/Desktop/LocalPC-EXP/subject-11.csv","psycho",4,70,14,"Lentiform Loewenfeld","3.3.8","['vert', 'hori', 'hori', 'vert', 'hori', 'vert', 'hori', 'vert']","no",202,"None","no",0,NA,2,"legacy",NA,1024,2,48000,-16,"experiment",11,"odd","green","no",1,"diamond",472241.2698,741111.5865,741111.6352,NA,756374.5537,NA,NA,160676.359999999,1860.95389999991,677355.2293,160676.3814,834097.5557,837938.647399999,NA,NA,NA,NA,1861.03319999984,789166.1211,676848.5178,NA,834097.569699999,789537.5376,834097.5055,"New experiment",19,"[0, 74.3185710303959, 94.75634285745386, 115.92589425570789, 138.52857241730948, 156.86046706525653, 178.62948099889263, 209.65518063149585, 235.6696258304468, 267.6618834966108, 291.0061578661454, 324.40775378799844, 349.06501607754893, 380.03509144227695, 408.26858320859935, 444.38828803972274, 455.3592928485119, 491.21826598658555, 522.0521033697817, 551.0329162890223, 582.7038819277549, 607.8751797171946, 634.6353527475695, 667.5683066751665, 682.7654662558888, 721.6070494313819, 729.3595533247819, 757.0160343462514, 810.6679344836577, 815.9289335794522, 846.763144034226, 852.2694111586884, 925.1849347601172, 978.472995673218, 1015.2360957360853, 1017.1335040440015]","dist_absent",56,29,"yes","no",1680,-3.64743837675364,5.30851885020028,"more away","False","NR","NR","lp",NA,"Left",NA,NA,1,NA,"first",4,"NR","in"
"71",1244.89880000055,21989.9914999986,109089.839999994,12,55,"#000000","no",834844.5636,2,"bias","psycho","psycho","psycho",0,"uniform",1,0,1,1,NA,1,0,NA,0,0,1,0,70,70,NA,NA,NA,NA,0,1,1,NA,70,1,70,73.2296414732588,"Wed Sep  1 11:30:53 2021","The main experiment item","yes","green","no","None","circle",NA,"pinging_target_expectations 4.0.osexp","C:\Users\etp-cp-ping\Desktop\LocalPC-EXP",75,"no","mono","no",18,"no","white","no","yes",1050,NA,2,"psycho",14,1,14,"C:/Users/etp-cp-ping/Desktop/LocalPC-EXP/subject-11.csv","psycho",4,71,15,"Lentiform Loewenfeld","3.3.8","['vert', 'vert', 'hori', 'vert', 'vert', 'hori', 'hori', 'hori']","no",202,"None","no",0,NA,2,"legacy",NA,1024,2,48000,-16,"experiment",11,"odd","red","no",1,"diamond",472241.2698,741111.5865,741111.6352,NA,756374.5537,NA,NA,160676.359999999,1860.95389999991,677355.2293,160676.3814,837971.4496,840930.591599999,NA,NA,NA,NA,1861.03319999984,789166.1211,676848.5178,NA,837971.4632,789537.5376,837971.4003,"New experiment",19,"[0]","dist_absent",56,29,"yes","yes",1680,13.2872491232464,11.0580813502004,"more toward","False","R","R","lp",NA,"Left",NA,NA,1,NA,"first",1,"NR","in"
"72",1388.85709999979,23378.8485999984,110478.697099994,12,55,"#000000","no",834844.5636,2,"bias","psycho","psycho","psycho",0,"uniform",0,0,1,1,NA,1,0,NA,0,0,1,0,71,71,NA,NA,NA,NA,0,1,1,NA,71,1,71,73.2296414732588,"Wed Sep  1 11:30:53 2021","The main experiment item","yes","green","yes","2","diamond",NA,"pinging_target_expectations 4.0.osexp","C:\Users\etp-cp-ping\Desktop\LocalPC-EXP",75,"no","mono","no",18,"no","white","no","yes",1050,NA,2,"psycho",15,1,15,"C:/Users/etp-cp-ping/Desktop/LocalPC-EXP/subject-11.csv","psycho",4,72,16,"Lentiform Loewenfeld","3.3.8","['hori', 'hori', 'hori', 'vert', 'vert', 'vert', 'hori', 'vert']","yes",102,"diamond","no",0,NA,2,"legacy",NA,1024,2,48000,-16,"experiment",11,"odd","red","no",3,"circle",472241.2698,741111.5865,741111.6352,NA,756374.5537,NA,NA,160676.359999999,1860.95389999991,677355.2293,160676.3814,840961.4852,844258.5879,NA,NA,NA,NA,1861.03319999984,789166.1211,676848.5178,NA,840961.4996,789537.5376,840961.4345,"New experiment",19,"[0, 73.49356412153313, 76.74902969791155, 77.21687518275411, 79.67160745322565, 83.77921079903994, 85.60894774259229, 89.8157955423574, 90.65505577839409, 92.13931447262412, 95.08718293439779, 97.49654488570161, 97.71978113463311, 98.65343379730885, 98.05575528759049, 96.18493718412167, 92.67544411490393, 90.28000296603436, 90.78463519667694, 90.29245285990037, 88.41507677303935, 88.28007656853558, 80.20638043145108, 79.24670882361708, 75.81094947984691]","dist_present",56,43,"yes","yes",1680,14.0551241232464,4.16089385020031,"more toward","False","NR","NR","lp",NA,NA,NA,NA,-1,0,"first",1,"R","in"
"73",1725.31310000073,25104.1616999991,112204.010199994,13,56,"#000000","no",834844.5636,2,"bias","psycho","psycho","psycho",0,"uniform",1,0,1,1,NA,1,0,NA,0,0,1,0,72,72,NA,NA,NA,NA,0,1,1,NA,72,1,72,73.2296414732588,"Wed Sep  1 11:30:53 2021","The main experiment item","yes","green","no","6","circle",NA,"pinging_target_expectations 4.0.osexp","C:\Users\etp-cp-ping\Desktop\LocalPC-EXP",75,"no","mono","no",18,"no","white","no","yes",1050,NA,2,"psycho",16,1,16,"C:/Users/etp-cp-ping/Desktop/LocalPC-EXP/subject-11.csv","psycho",4,73,17,"Lentiform Loewenfeld","3.3.8","['vert', 'vert', 'hori', 'vert', 'vert', 'hori', 'hori', 'hori']","no",202,"None","no",0,NA,2,"legacy",NA,1024,2,48000,-16,"experiment",11,"odd","red","no",7,"diamond",472241.2698,741111.5865,741111.6352,NA,756374.5537,NA,NA,160676.359999999,1860.95389999991,677355.2293,160676.3814,844289.4549,848050.6082,NA,NA,NA,NA,1861.03319999984,789166.1211,676848.5178,NA,844289.4687,789537.5376,844289.4062,"New experiment",19,"[0]","dist_present",56,87,"yes","yes",1680,15.6106241232463,-22.2732936497997,"more toward","False","NR","NR","lp",NA,NA,NA,NA,3,4,"first",3,"NR","in"
"74",2000.61269999971,27104.7743999988,114204.622899994,13,56,"#000000","no",849560.8764,2,"bias","psycho","psycho","psycho",0,"uniform",0,0,1,1,NA,1,0,NA,0,0,1,0,73,73,NA,NA,NA,NA,0,1,1,NA,73,1,73,73.2296414732588,"Wed Sep  1 11:30:53 2021","The main experiment item","yes","green","no","0","circle",NA,"pinging_target_expectations 4.0.osexp","C:\Users\etp-cp-ping\Desktop\LocalPC-EXP",75,"no","mono","no",18,"no","white","no","yes",1050,NA,2,"psycho",17,1,17,"C:/Users/etp-cp-ping/Desktop/LocalPC-EXP/subject-11.csv","psycho",5,74,18,"Lentiform Loewenfeld","3.3.8","['vert', 'hori', 'vert', 'hori', 'vert', 'vert', 'hori', 'hori']","yes",102,"diamond","no",0,NA,2,"legacy",NA,1024,2,48000,-16,"experiment",11,"odd","red","no",1,"diamond",472241.2698,741111.5865,741111.6352,NA,756374.5537,NA,NA,160676.359999999,1860.95389999991,677355.2293,160676.3814,848081.7455,852036.963099999,NA,NA,NA,NA,1861.03319999984,789166.1211,676848.5178,NA,848081.7596,789537.5376,848081.6956,"New experiment",19,"[0]","dist_present",56,21,"yes","yes",1680,NA,NA,"no hp","True","NR","NR","lp",NA,"Left",NA,NA,1,2,"first",7,"NR","in"
"75",860.181099999812,27964.9554999986,115064.803999994,14,57,"#000000","no",853214.4501,2,"bias","psycho","psycho","psycho",0,"uniform",1,0,1,1,NA,1,0,NA,0,0,1,0,74,74,NA,NA,NA,NA,0,1,1,NA,74,1,74,73.2296414732588,"Wed Sep  1 11:30:53 2021","The main experiment item","yes","green","no","None","diamond",NA,"pinging_target_expectations 4.0.osexp","C:\Users\etp-cp-ping\Desktop\LocalPC-EXP",75,"no","mono","no",18,"no","white","no","yes",1050,NA,2,"psycho",18,1,18,"C:/Users/etp-cp-ping/Desktop/LocalPC-EXP/subject-11.csv","psycho",6,75,19,"Lentiform Loewenfeld","3.3.8","['hori', 'hori', 'vert', 'vert', 'hori', 'vert', 'vert', 'hori']","no",202,"None","no",0,NA,2,"legacy",NA,1024,2,48000,-16,"experiment",11,"odd","red","no",3,"circle",472241.2698,741111.5865,741111.6352,NA,756374.5537,NA,NA,160676.359999999,1860.95389999991,677355.2293,160676.3814,852067.5394,854658.670899999,NA,NA,NA,NA,1861.03319999984,789166.1211,676848.5178,NA,852067.553299999,789537.5376,852067.4901,"New experiment",19,"[0, 74.12375659330957, 80.46513623560338, 95.1895774200866, 109.8007303738265, 129.38948473413816, 143.24840736768996, 159.41102474286592, 178.03599673328338, 194.5507645834372, 220.67934793381409, 233.03437515715018, 259.3242156326269, 280.40785393048395, 301.2568565698899, 330.27411497195493, 347.2544106316379, 374.4141113132471, 396.46799159500347, 426.09221625480427, 452.96505958795524, 465.5891822554531, 485.809784128501, 506.24305186204276, 542.8437183043036, 560.7830938710458, 600.2000997673554, 612.2751696034953, 646.4256322178766, 654.8680890391195, 690.0817385198823, 713.4969011951891, 745.4731991571674, 767.8567974731901, 772.1612699694416, 802.5158656905551, 802.4690898127996, 869.6194737048114, 874.8504441608507, 933.7588580420128, 935.4369063311105, 926.0482919670973, 985.8310869741724, 1021.6205794254864]","dist_absent",56,49,"yes","no",1680,NA,NA,"no hp","True","NR","NR","lp",NA,"Left",NA,NA,-1,NA,"first",1,"NR","in"
"76",1994.27279999957,29959.2282999982,117059.076799993,15,58,"#000000","no",853214.4501,2,"bias","psycho","psycho","psycho",0,"uniform",1,0,1,1,NA,1,0,NA,0,0,1,0,75,75,NA,NA,NA,NA,0,1,1,NA,75,1,75,73.2296414732588,"Wed Sep  1 11:30:53 2021","The main experiment item","yes","red","no","3","circle",NA,"pinging_target_expectations 4.0.osexp","C:\Users\etp-cp-ping\Desktop\LocalPC-EXP",75,"no","mono","no",18,"no","white","no","yes",1050,NA,2,"psycho",19,1,19,"C:/Users/etp-cp-ping/Desktop/LocalPC-EXP/subject-11.csv","psycho",6,76,20,"Lentiform Loewenfeld","3.3.8","['hori', 'vert', 'hori', 'hori', 'vert', 'vert', 'vert', 'hori']","yes",102,"circles","no",0,NA,2,"legacy",NA,1024,2,48000,-16,"experiment",11,"odd","green","no",4,"diamond",472241.2698,741111.5865,741111.6352,NA,756374.5537,NA,NA,160676.359999999,1860.95389999991,677355.2293,160676.3814,854689.6998,858690.6252,NA,NA,NA,NA,1861.03319999984,789166.1211,676848.5178,NA,854689.7139,789537.5376,854689.6508,"New experiment",19,"[0]","dist_present",56,54,"yes","yes",1680,11.8741866232463,-9.18779364979963,"more toward","False","NR","NR","lp","Left",NA,NA,NA,-2,-1,"first",3,"NR","in"
"77",1224.6538999998,31183.882199998,118283.730699993,16,59,"#000000","no",853214.4501,2,"bias","psycho","psycho","psycho",0,"uniform",1,0,1,1,NA,1,0,NA,0,0,1,0,76,76,NA,NA,NA,NA,0,1,1,NA,76,1,76,73.2296414732588,"Wed Sep  1 11:30:53 2021","The main experiment item","yes","green","no","None","diamond",NA,"pinging_target_expectations 4.0.osexp","C:\Users\etp-cp-ping\Desktop\LocalPC-EXP",75,"no","mono","no",18,"no","white","no","yes",1050,NA,2,"psycho",20,1,20,"C:/Users/etp-cp-ping/Desktop/LocalPC-EXP/subject-11.csv","psycho",6,77,21,"Lentiform Loewenfeld","3.3.8","['hori', 'hori', 'vert', 'vert', 'vert', 'hori', 'hori', 'vert']","yes",102,"circles","no",0,NA,2,"legacy",NA,1024,2,48000,-16,"experiment",11,"odd","red","yes",2,"circle",472241.2698,741111.5865,741111.6352,NA,756374.5537,NA,NA,160676.359999999,1860.95389999991,677355.2293,160676.3814,858721.6792,861778.6187,NA,NA,NA,NA,1861.03319999984,789166.1211,676848.5178,NA,858721.6932,789537.5376,858721.6283,"New experiment",19,"[0]","dist_absent",56,39,"yes","yes",1680,1.8124366232464,-0.207106149799724,"more away","False","NR","NR","lp",NA,"Left",NA,"Left",0,NA,"first",4,"NR","ex"
"78",1143.68219999957,32327.5643999976,119427.412899993,17,60,"#000000","no",853214.4501,2,"bias","psycho","psycho","psycho",0,"uniform",1,0,1,1,NA,1,0,NA,0,0,1,0,77,77,NA,NA,NA,NA,0,1,1,NA,77,1,77,73.2296414732588,"Wed Sep  1 11:30:53 2021","The main experiment item","yes","red","no","7","diamond",NA,"pinging_target_expectations 4.0.osexp","C:\Users\etp-cp-ping\Desktop\LocalPC-EXP",75,"no","mono","no",18,"no","white","no","yes",1050,NA,2,"psycho",21,1,21,"C:/Users/etp-cp-ping/Desktop/LocalPC-EXP/subject-11.csv","psycho",6,78,22,"Lentiform Loewenfeld","3.3.8","['hori', 'hori', 'hori', 'vert', 'hori', 'vert', 'vert', 'vert']","no",202,"None","no",0,NA,2,"legacy",NA,1024,2,48000,-16,"experiment",11,"odd","green","yes",2,"circle",472241.2698,741111.5865,741111.6352,NA,756374.5537,NA,NA,160676.359999999,1860.95389999991,677355.2293,160676.3814,861809.523,864818.6661,NA,NA,NA,NA,1861.03319999984,789166.1211,676848.5178,NA,861809.5372,789537.5376,861809.474,"New experiment",19,"[0]","dist_present",56,38,"yes","yes",1680,7.38631162324637,-1.3184811497997,"more toward","False","R","NR","hp",NA,NA,NA,NA,0,3,"first",2,"NR","ex"
"79",1976.71530000027,34304.2796999979,121404.128199993,18,61,"#000000","no",866129.187099999,2,"bias","psycho","psycho","psycho",0,"uniform",1,0,1,1,NA,1,0,NA,0,0,1,0,78,78,NA,NA,NA,NA,0,1,1,NA,78,1,78,73.2296414732588,"Wed Sep  1 11:30:53 2021","The main experiment item","yes","red","no","7","circle",NA,"pinging_target_expectations 4.0.osexp","C:\Users\etp-cp-ping\Desktop\LocalPC-EXP",75,"no","mono","no",18,"no","white","no","yes",1050,NA,2,"psycho",22,1,22,"C:/Users/etp-cp-ping/Desktop/LocalPC-EXP/subject-11.csv","psycho",7,79,23,"Lentiform Loewenfeld","3.3.8","['hori', 'vert', 'vert', 'vert', 'vert', 'hori', 'hori', 'hori']","no",202,"None","no",0,NA,2,"legacy",NA,1024,2,48000,-16,"experiment",11,"odd","green","no",5,"diamond",472241.2698,741111.5865,741111.6352,NA,756374.5537,NA,NA,160676.359999999,1860.95389999991,677355.2293,160676.3814,864849.6283,868578.6962,NA,NA,NA,NA,1861.03319999984,789166.1211,676848.5178,NA,864849.6423,789537.5376,864849.5788,"New experiment",19,"[0, 78.40289394721007, 94.88118644397198, 107.10638070213031, 125.63731085706519, 141.893595026594, 162.59648648415742, 181.62898542007747, 203.02598574732366, 229.59486163301216, 249.38212751209957, 276.83102266961595, 303.0822327594515, 319.99314639572447, 351.21922872470657, 374.672580359365, 400.8929177431078, 412.7983769347937, 454.08258628899074, 464.1343974134064, 497.8778431225511, 515.4049357688983, 554.4451878967268, 572.021119208297, 610.7311192333333, 623.7467373646529, 655.3880103245322, 658.7890419378151, 720.7435396866211, 738.6947294124421, 773.0940901716319, 835.2020821329829, 853.264981536828, 907.2240514698839, 907.1101179273358, 909.9793681206588, 946.7187645767146, 1002.2730689286766, 1035.4181847611067, 1057.298191558466, 1077.2233950584857]","dist_present",56,68,"yes","no",1680,NA,NA,"no hp","True","NR","R","hp",NA,NA,NA,NA,-3,3,"first",2,"R","in"
