"","RT","RT_bl","RT_tot","acc_bl","acc_tot","answer_debrief_1","answer_debrief_2","answer_debrief_3","answer_debrief_4","background","bidi","blink_onset","block_cnt","block_type","canvas_backend","clock_backend","color_backend","compensation","coordinates","correct","count_block_loop","count_block_seq","count_block_settings","count_check_session","count_drift_correct","count_end_loop","count_end_seq","count_exp_settings","count_experiment","count_feedback","count_instructions","count_log_variables","count_logger","count_new_inline_script","count_new_pygaze_drift_correct","count_new_pygaze_start_recording","count_new_pygaze_stop_recording","count_pygaze","count_start_recording","count_stop_recording","count_test_location","count_trial","count_trial_loop","count_trial_seq","d_eye","datetime","description","disable_garbage_collection","dist_color","dist_high","dist_loc","dist_shape","empty_column","experiment_file","experiment_path","eye_threshold_length","font_bold","font_family","font_italic","font_size","font_underline","foreground","form_clicks","fullscreen","height","high_loc","high_prob_loc","keyboard_backend","live_row","live_row_block_loop","live_row_trial_loop","logfile","mouse_backend","nr_blinks","nr_trials","nr_trials_bl","opensesame_codename","opensesame_version","orient_list_trial","ping","ping_trigger","ping_type","practice","repeat_cycle","response","round_decimals","sampler_backend","session_nr","sound_buf_size","sound_channels","sound_freq","sound_sample_size","start","subject_nr","subject_parity","target_color","target_high","target_loc","target_shape","time_block_loop","time_block_seq","time_block_settings","time_check_session","time_drift_correct","time_end_loop","time_end_seq","time_exp_settings","time_experiment","time_feedback","time_instructions","time_log_variables","time_logger","time_new_inline_script","time_new_pygaze_drift_correct","time_new_pygaze_start_recording","time_new_pygaze_stop_recording","time_pygaze","time_start_recording","time_stop_recording","time_test_location","time_trial","time_trial_loop","time_trial_seq","title","total_blocks","tracker_dev","trial_type","trials_in_block","trigger","uniform_coordinates","update_blinks","width","x","y","toward","containsNaN","rept","repd","prevtar","pd","nt","pd_c","nt_c","tar_dist","dist_dist","prevHP","eegTar","repteeg","tarcounter"
"1",1736.09269999998,1736.09269999998,1736.09269999998,0,0,"y",1,"['1', '1', 'space']","n","#000000","no",6778.55379999983,1,"neutral","psycho","psycho","psycho",0,"uniform",0,0,0,0,NA,0,0,NA,0,0,0,0,0,0,NA,NA,NA,NA,0,0,0,NA,0,0,0,73.2296414732588,"Mon Nov  1 11:38:23 2021","The main experiment item","yes","red","no","None","diamond",NA,"pinging_target_expectations 5.0.osexp","C:\Users\etp-cp-ping\Desktop\LocalPC-EXP",75,"no","mono","no",18,"no","white","no","yes",1050,NA,100,"psycho",0,0,0,"C:/Users/etp-cp-ping/Desktop/LocalPC-EXP/subject-18.csv","psycho",0,1,1,"Lentiform Loewenfeld","3.3.8","['vert', 'hori', 'vert', 'hori', 'vert', 'hori', 'hori', 'vert']","no",209,"None","yes",0,NA,2,"legacy",NA,1024,2,48000,-16,"experiment",18,"even","green","no",2,"circle",395329.2634,395478.677300001,395478.7935,NA,402625.275,NA,NA,43797.5895999998,6784.85939999973,NA,43797.6134,404337.8803,407842.4631,NA,NA,NA,NA,6784.92150000056,403837.1034,NA,NA,404337.8957,404333.4633,404337.8363,"New experiment",19,"[0]","dist_absent",56,39,"yes","yes",1680,NA,NA,NA,NA,"NR","NR","lp",NA,"Left",NA,"Left",NA,NA,"practice",999,"NR","in"
"2",2000.94829999947,3737.04099999944,3737.04099999944,0,0,"y",1,"['1', '1', 'space']","n","#000000","no",6778.55379999983,1,"neutral","psycho","psycho","psycho",0,"uniform",0,0,0,0,NA,0,0,NA,0,0,0,0,1,1,NA,NA,NA,NA,0,0,0,NA,1,0,1,73.2296414732588,"Mon Nov  1 11:38:23 2021","The main experiment item","yes","red","no","0","circle",NA,"pinging_target_expectations 5.0.osexp","C:\Users\etp-cp-ping\Desktop\LocalPC-EXP",75,"no","mono","no",18,"no","white","no","yes",1050,NA,100,"psycho",1,0,1,"C:/Users/etp-cp-ping/Desktop/LocalPC-EXP/subject-18.csv","psycho",0,2,2,"Lentiform Loewenfeld","3.3.8","['hori', 'vert', 'vert', 'hori', 'hori', 'vert', 'vert', 'hori']","yes",109,"diamond","yes",0,NA,2,"legacy",NA,1024,2,48000,-16,"experiment",18,"even","green","no",2,"diamond",395329.2634,395478.677300001,395478.7935,NA,402625.275,NA,NA,43797.5895999998,6784.85939999973,NA,43797.6134,407883.4862,411619.1962,NA,NA,NA,NA,6784.92150000056,403837.1034,NA,NA,407883.501,404333.4633,407883.4359,"New experiment",19,"[0]","dist_present",56,31,"yes","yes",1680,NA,NA,NA,NA,"R","NR","lp",NA,"Left",NA,"Left",NA,NA,"practice",2,"NR","in"
"3",2000.54730000009,5737.58829999954,5737.58829999954,0,0,"y",1,"['1', '1', 'space']","n","#000000","no",6778.55379999983,1,"neutral","psycho","psycho","psycho",0,"uniform",0,0,0,0,NA,0,0,NA,0,0,0,0,2,2,NA,NA,NA,NA,0,0,0,NA,2,0,2,73.2296414732588,"Mon Nov  1 11:38:23 2021","The main experiment item","yes","green","no","5","diamond",NA,"pinging_target_expectations 5.0.osexp","C:\Users\etp-cp-ping\Desktop\LocalPC-EXP",75,"no","mono","no",18,"no","white","no","yes",1050,NA,100,"psycho",2,0,2,"C:/Users/etp-cp-ping/Desktop/LocalPC-EXP/subject-18.csv","psycho",0,3,3,"Lentiform Loewenfeld","3.3.8","['hori', 'vert', 'hori', 'vert', 'vert', 'hori', 'vert', 'hori']","no",209,"None","yes",0,NA,2,"legacy",NA,1024,2,48000,-16,"experiment",18,"even","red","no",4,"circle",395329.2634,395478.677300001,395478.7935,NA,402625.275,NA,NA,43797.5895999998,6784.85939999973,NA,43797.6134,411652.243,415818.2946,NA,NA,NA,NA,6784.92150000056,403837.1034,NA,NA,411652.257700001,404333.4633,411652.190700001,"New experiment",19,"[0]","dist_present",56,56,"yes","yes",1680,NA,NA,NA,NA,"NR","NR","lp","Right",NA,NA,NA,NA,NA,"practice",2,"R","in"
"4",615.164899999392,6352.75319999893,6352.75319999893,1,1,"y",1,"['1', '1', 'space']","n","#000000","no",6778.55379999983,1,"neutral","psycho","psycho","psycho",0,"uniform",1,0,0,0,NA,0,0,NA,0,0,0,0,3,3,NA,NA,NA,NA,0,0,0,NA,3,0,3,73.2296414732588,"Mon Nov  1 11:38:23 2021","The main experiment item","yes","red","no","0","circle",NA,"pinging_target_expectations 5.0.osexp","C:\Users\etp-cp-ping\Desktop\LocalPC-EXP",75,"no","mono","no",18,"no","white","no","yes",1050,NA,100,"psycho",3,0,3,"C:/Users/etp-cp-ping/Desktop/LocalPC-EXP/subject-18.csv","psycho",0,4,4,"Lentiform Loewenfeld","3.3.8","['vert', 'hori', 'hori', 'hori', 'vert', 'hori', 'vert', 'vert']","no",209,"None","yes",0,NA,2,"legacy",NA,1024,2,48000,-16,"experiment",18,"even","green","no",6,"diamond",395329.2634,395478.677300001,395478.7935,NA,402625.275,NA,NA,43797.5895999998,6784.85939999973,NA,43797.6134,415848.9832,418418.3879,NA,NA,NA,NA,6784.92150000056,403837.1034,NA,NA,415848.9981,404333.4633,415848.9259,"New experiment",19,"[0]","dist_present",56,71,"yes","yes",1680,NA,NA,NA,NA,"NR","NR","lp",NA,"Right",NA,"Right",NA,NA,"practice",4,"NR","in"
"5",2000.55810000049,8353.31129999942,8353.31129999942,1,1,"y",1,"['1', '1', 'space']","n","#000000","no",6778.55379999983,1,"neutral","psycho","psycho","psycho",0,"uniform",0,0,0,0,NA,0,0,NA,0,0,0,0,4,4,NA,NA,NA,NA,0,0,0,NA,4,0,4,73.2296414732588,"Mon Nov  1 11:38:23 2021","The main experiment item","yes","green","no","1","circle",NA,"pinging_target_expectations 5.0.osexp","C:\Users\etp-cp-ping\Desktop\LocalPC-EXP",75,"no","mono","no",18,"no","white","no","yes",1050,NA,100,"psycho",4,0,4,"C:/Users/etp-cp-ping/Desktop/LocalPC-EXP/subject-18.csv","psycho",0,5,5,"Lentiform Loewenfeld","3.3.8","['hori', 'hori', 'vert', 'vert', 'vert', 'vert', 'hori', 'hori']","yes",109,"circles","yes",0,NA,2,"legacy",NA,1024,2,48000,-16,"experiment",18,"even","red","no",3,"diamond",395329.2634,395478.677300001,395478.7935,NA,402625.275,NA,NA,43797.5895999998,6784.85939999973,NA,43797.6134,418449.4196,422313.4083,NA,NA,NA,NA,6784.92150000056,403837.1034,NA,NA,418449.4344,404333.4633,418449.368600001,"New experiment",19,"[0]","dist_present",56,42,"yes","yes",1680,NA,NA,NA,NA,"NR","NR","lp",NA,NA,NA,NA,NA,NA,"practice",6,"NR","in"
"6",2000.56450000009,10353.8757999995,10353.8757999995,1,1,"y",1,"['1', '1', 'space']","n","#000000","no",424612.8377,1,"neutral","psycho","psycho","psycho",0,"uniform",0,0,0,0,NA,0,0,NA,0,0,0,0,5,5,NA,NA,NA,NA,0,0,0,NA,5,0,5,73.2296414732588,"Mon Nov  1 11:38:23 2021","The main experiment item","yes","green","no","1","circle",NA,"pinging_target_expectations 5.0.osexp","C:\Users\etp-cp-ping\Desktop\LocalPC-EXP",75,"no","mono","no",18,"no","white","no","yes",1050,NA,100,"psycho",5,0,5,"C:/Users/etp-cp-ping/Desktop/LocalPC-EXP/subject-18.csv","psycho",1,6,6,"Lentiform Loewenfeld","3.3.8","['vert', 'hori', 'vert', 'vert', 'vert', 'hori', 'hori', 'hori']","yes",109,"diamond","yes",0,NA,2,"legacy",NA,1024,2,48000,-16,"experiment",18,"even","red","no",3,"diamond",395329.2634,395478.677300001,395478.7935,NA,402625.275,NA,NA,43797.5895999998,6784.85939999973,NA,43797.6134,422344.3817,426339.393,NA,NA,NA,NA,6784.92150000056,403837.1034,NA,NA,422344.3962,404333.4633,422344.331400001,"New experiment",19,"[0]","dist_present",56,42,"yes","yes",1680,NA,NA,NA,NA,"R","R","lp",NA,NA,NA,NA,NA,NA,"practice",3,"NR","in"
"7",2000.81550000049,12354.6913,12354.6913,1,1,"y",1,"['1', '1', 'space']","n","#000000","no",424612.8377,1,"neutral","psycho","psycho","psycho",0,"uniform",0,0,0,0,NA,0,0,NA,0,0,0,0,6,6,NA,NA,NA,NA,0,0,0,NA,6,0,6,73.2296414732588,"Mon Nov  1 11:38:23 2021","The main experiment item","yes","green","no","6","diamond",NA,"pinging_target_expectations 5.0.osexp","C:\Users\etp-cp-ping\Desktop\LocalPC-EXP",75,"no","mono","no",18,"no","white","no","yes",1050,NA,100,"psycho",6,0,6,"C:/Users/etp-cp-ping/Desktop/LocalPC-EXP/subject-18.csv","psycho",1,7,7,"Lentiform Loewenfeld","3.3.8","['vert', 'hori', 'vert', 'hori', 'hori', 'hori', 'vert', 'vert']","no",209,"None","yes",0,NA,2,"legacy",NA,1024,2,48000,-16,"experiment",18,"even","red","no",4,"circle",395329.2634,395478.677300001,395478.7935,NA,402625.275,NA,NA,43797.5895999998,6784.85939999973,NA,43797.6134,426370.238,430177.738500001,NA,NA,NA,NA,6784.92150000056,403837.1034,NA,NA,426370.2526,404333.4633,426370.1856,"New experiment",19,"[0]","dist_present",56,57,"yes","yes",1680,NA,NA,NA,NA,"NR","NR","lp","Right",NA,"Right",NA,NA,NA,"practice",3,"R","in"
"8",2000.63409999985,14355.3253999999,14355.3253999999,1,1,"y",1,"['1', '1', 'space']","n","#000000","no",424612.8377,1,"neutral","psycho","psycho","psycho",0,"uniform",0,0,0,0,NA,0,0,NA,0,0,0,0,7,7,NA,NA,NA,NA,0,0,0,NA,7,0,7,73.2296414732588,"Mon Nov  1 11:38:23 2021","The main experiment item","yes","red","no","4","diamond",NA,"pinging_target_expectations 5.0.osexp","C:\Users\etp-cp-ping\Desktop\LocalPC-EXP",75,"no","mono","no",18,"no","white","no","yes",1050,NA,100,"psycho",7,0,7,"C:/Users/etp-cp-ping/Desktop/LocalPC-EXP/subject-18.csv","psycho",1,8,8,"Lentiform Loewenfeld","3.3.8","['hori', 'vert', 'hori', 'vert', 'hori', 'hori', 'vert', 'vert']","no",209,"None","yes",0,NA,2,"legacy",NA,1024,2,48000,-16,"experiment",18,"even","green","no",1,"circle",395329.2634,395478.677300001,395478.7935,NA,402625.275,NA,NA,43797.5895999998,6784.85939999973,NA,43797.6134,430208.8413,434332.7241,NA,NA,NA,NA,6784.92150000056,403837.1034,NA,NA,430208.8577,404333.4633,430208.6576,"New experiment",19,"[0]","dist_present",56,25,"yes","yes",1680,NA,NA,NA,NA,"NR","NR","lp",NA,"Left",NA,NA,NA,NA,"practice",4,"NR","in"
"9",1548.74449999991,15904.0698999998,15904.0698999998,2,2,"y",1,"['1', '1', 'space']","n","#000000","no",424612.8377,1,"neutral","psycho","psycho","psycho",0,"uniform",1,0,0,0,NA,0,0,NA,0,0,0,0,8,8,NA,NA,NA,NA,0,0,0,NA,8,0,8,73.2296414732588,"Mon Nov  1 11:38:23 2021","The main experiment item","yes","green","no","None","diamond",NA,"pinging_target_expectations 5.0.osexp","C:\Users\etp-cp-ping\Desktop\LocalPC-EXP",75,"no","mono","no",18,"no","white","no","yes",1050,NA,100,"psycho",8,0,8,"C:/Users/etp-cp-ping/Desktop/LocalPC-EXP/subject-18.csv","psycho",1,9,9,"Lentiform Loewenfeld","3.3.8","['hori', 'vert', 'vert', 'vert', 'hori', 'hori', 'hori', 'vert']","no",209,"None","yes",0,NA,2,"legacy",NA,1024,2,48000,-16,"experiment",18,"even","red","no",7,"circle",395329.2634,395478.677300001,395478.7935,NA,402625.275,NA,NA,43797.5895999998,6784.85939999973,NA,43797.6134,434363.553300001,437778.3267,NA,NA,NA,NA,6784.92150000056,403837.1034,NA,NA,434363.5676,404333.4633,434363.5021,"New experiment",19,"[0]","dist_absent",56,89,"yes","yes",1680,NA,NA,NA,NA,"NR","NR","lp",NA,"Right",NA,NA,NA,NA,"practice",1,"NR","in"
"10",1666.57750000013,17570.6473999999,17570.6473999999,3,3,"y",1,"['1', '1', 'space']","n","#000000","no",424612.8377,1,"neutral","psycho","psycho","psycho",0,"uniform",1,0,0,0,NA,0,0,NA,0,0,0,0,9,9,NA,NA,NA,NA,0,0,0,NA,9,0,9,73.2296414732588,"Mon Nov  1 11:38:23 2021","The main experiment item","yes","green","no","6","circle",NA,"pinging_target_expectations 5.0.osexp","C:\Users\etp-cp-ping\Desktop\LocalPC-EXP",75,"no","mono","no",18,"no","white","no","yes",1050,NA,100,"psycho",9,0,9,"C:/Users/etp-cp-ping/Desktop/LocalPC-EXP/subject-18.csv","psycho",1,10,10,"Lentiform Loewenfeld","3.3.8","['hori', 'vert', 'hori', 'hori', 'hori', 'vert', 'vert', 'vert']","no",209,"None","yes",0,NA,2,"legacy",NA,1024,2,48000,-16,"experiment",18,"even","red","no",2,"diamond",395329.2634,395478.677300001,395478.7935,NA,402625.275,NA,NA,43797.5895999998,6784.85939999973,NA,43797.6134,437809.5313,441378.3314,NA,NA,NA,NA,6784.92150000056,403837.1034,NA,NA,437809.5463,404333.4633,437809.4778,"New experiment",19,"[0]","dist_present",56,37,"yes","yes",1680,NA,NA,NA,NA,"NR","NR","lp",NA,NA,NA,NA,NA,NA,"practice",7,"NR","in"
"11",2000.76620000071,19571.4136000006,19571.4136000006,3,3,"y",1,"['1', '1', 'space']","n","#000000","no",442034.4947,1,"neutral","psycho","psycho","psycho",0,"uniform",0,0,0,0,NA,0,0,NA,0,0,0,0,10,10,NA,NA,NA,NA,0,0,0,NA,10,0,10,73.2296414732588,"Mon Nov  1 11:38:23 2021","The main experiment item","yes","red","no","5","diamond",NA,"pinging_target_expectations 5.0.osexp","C:\Users\etp-cp-ping\Desktop\LocalPC-EXP",75,"no","mono","no",18,"no","white","no","yes",1050,NA,100,"psycho",10,0,10,"C:/Users/etp-cp-ping/Desktop/LocalPC-EXP/subject-18.csv","psycho",2,11,11,"Lentiform Loewenfeld","3.3.8","['vert', 'vert', 'hori', 'hori', 'hori', 'hori', 'vert', 'vert']","yes",109,"diamond","yes",0,NA,2,"legacy",NA,1024,2,48000,-16,"experiment",18,"even","green","no",2,"circle",395329.2634,395478.677300001,395478.7935,NA,402625.275,NA,NA,43797.5895999998,6784.85939999973,NA,43797.6134,441409.317000001,445428.7737,NA,NA,NA,NA,6784.92150000056,403837.1034,NA,NA,441409.3316,404333.4633,441409.2653,"New experiment",19,"[0]","dist_present",56,36,"yes","yes",1680,NA,NA,NA,NA,"R","NR","lp",NA,NA,NA,NA,NA,NA,"practice",2,"NR","in"
"12",2000.45099999988,21571.8646000005,21571.8646000005,3,3,"y",1,"['1', '1', 'space']","n","#000000","no",442034.4947,1,"neutral","psycho","psycho","psycho",0,"uniform",0,0,0,0,NA,0,0,NA,0,0,0,0,11,11,NA,NA,NA,NA,0,0,0,NA,11,0,11,73.2296414732588,"Mon Nov  1 11:38:23 2021","The main experiment item","yes","red","no","None","circle",NA,"pinging_target_expectations 5.0.osexp","C:\Users\etp-cp-ping\Desktop\LocalPC-EXP",75,"no","mono","no",18,"no","white","no","yes",1050,NA,100,"psycho",11,0,11,"C:/Users/etp-cp-ping/Desktop/LocalPC-EXP/subject-18.csv","psycho",2,12,12,"Lentiform Loewenfeld","3.3.8","['hori', 'vert', 'vert', 'vert', 'vert', 'hori', 'hori', 'hori']","yes",109,"circles","yes",0,NA,2,"legacy",NA,1024,2,48000,-16,"experiment",18,"even","green","no",7,"diamond",395329.2634,395478.677300001,395478.7935,NA,402625.275,NA,NA,43797.5895999998,6784.85939999973,NA,43797.6134,445463.001900001,449215.6158,NA,NA,NA,NA,6784.92150000056,403837.1034,NA,NA,445463.0164,404333.4633,445462.9514,"New experiment",19,"[0]","dist_absent",56,89,"yes","yes",1680,NA,NA,NA,NA,"NR","NR","lp",NA,"Right",NA,NA,NA,NA,"practice",2,"R","in"
"13",1695.3021999998,23267.1668000003,23267.1668000003,4,4,"y",1,"['1', '1', 'space']","n","#000000","no",442034.4947,1,"neutral","psycho","psycho","psycho",0,"uniform",1,0,0,0,NA,0,0,NA,0,0,0,0,12,12,NA,NA,NA,NA,0,0,0,NA,12,0,12,73.2296414732588,"Mon Nov  1 11:38:23 2021","The main experiment item","yes","red","no","7","diamond",NA,"pinging_target_expectations 5.0.osexp","C:\Users\etp-cp-ping\Desktop\LocalPC-EXP",75,"no","mono","no",18,"no","white","no","yes",1050,NA,100,"psycho",12,0,12,"C:/Users/etp-cp-ping/Desktop/LocalPC-EXP/subject-18.csv","psycho",2,13,13,"Lentiform Loewenfeld","3.3.8","['hori', 'hori', 'hori', 'hori', 'vert', 'vert', 'vert', 'vert']","no",209,"None","yes",0,NA,2,"legacy",NA,1024,2,48000,-16,"experiment",18,"even","green","no",0,"circle",395329.2634,395478.677300001,395478.7935,NA,402625.275,NA,NA,43797.5895999998,6784.85939999973,NA,43797.6134,449246.551,452706.3358,NA,NA,NA,NA,6784.92150000056,403837.1034,NA,NA,449246.5656,404333.4633,449246.4994,"New experiment",19,"[0]","dist_present",56,18,"yes","yes",1680,NA,NA,NA,NA,"NR","NR","lp","Right",NA,NA,NA,NA,NA,"practice",7,"NR","in"
"14",1710.05019999936,24977.2169999997,24977.2169999997,5,5,"y",1,"['1', '1', 'space']","n","#000000","no",442034.4947,1,"neutral","psycho","psycho","psycho",0,"uniform",1,0,0,0,NA,0,0,NA,0,0,0,0,13,13,NA,NA,NA,NA,0,0,0,NA,13,0,13,73.2296414732588,"Mon Nov  1 11:38:23 2021","The main experiment item","yes","green","no","None","circle",NA,"pinging_target_expectations 5.0.osexp","C:\Users\etp-cp-ping\Desktop\LocalPC-EXP",75,"no","mono","no",18,"no","white","no","yes",1050,NA,100,"psycho",13,0,13,"C:/Users/etp-cp-ping/Desktop/LocalPC-EXP/subject-18.csv","psycho",2,14,14,"Lentiform Loewenfeld","3.3.8","['vert', 'vert', 'hori', 'vert', 'hori', 'hori', 'vert', 'hori']","yes",109,"diamond","yes",0,NA,2,"legacy",NA,1024,2,48000,-16,"experiment",18,"even","red","no",3,"diamond",395329.2634,395478.677300001,395478.7935,NA,402625.275,NA,NA,43797.5895999998,6784.85939999973,NA,43797.6134,452737.6473,456210.4077,NA,NA,NA,NA,6784.92150000056,403837.1034,NA,NA,452737.6621,404333.4633,452737.5957,"New experiment",19,"[0]","dist_absent",56,49,"yes","yes",1680,NA,NA,NA,NA,"NR","NR","lp",NA,"Left",NA,NA,NA,NA,"practice",0,"NR","in"
"15",1155.31749999989,26132.5344999995,26132.5344999995,6,6,"y",1,"['1', '1', 'space']","n","#000000","no",456505.7067,1,"neutral","psycho","psycho","psycho",0,"uniform",1,0,0,0,NA,0,0,NA,0,0,0,0,14,14,NA,NA,NA,NA,0,0,0,NA,14,0,14,73.2296414732588,"Mon Nov  1 11:38:23 2021","The main experiment item","yes","green","no","None","diamond",NA,"pinging_target_expectations 5.0.osexp","C:\Users\etp-cp-ping\Desktop\LocalPC-EXP",75,"no","mono","no",18,"no","white","no","yes",1050,NA,100,"psycho",14,0,14,"C:/Users/etp-cp-ping/Desktop/LocalPC-EXP/subject-18.csv","psycho",3,15,15,"Lentiform Loewenfeld","3.3.8","['hori', 'vert', 'vert', 'vert', 'hori', 'hori', 'vert', 'hori']","no",209,"None","yes",0,NA,2,"legacy",NA,1024,2,48000,-16,"experiment",18,"even","red","no",0,"circle",395329.2634,395478.677300001,395478.7935,NA,402625.275,NA,NA,43797.5895999998,6784.85939999973,NA,43797.6134,456241.6849,459218.3806,NA,NA,NA,NA,6784.92150000056,403837.1034,NA,NA,456241.6997,404333.4633,456241.634,"New experiment",19,"[0, 981.5417841417225, 968.0133541150751]","dist_absent",56,19,"yes","no",1680,NA,NA,NA,NA,"NR","R","lp",NA,NA,NA,NA,NA,NA,"practice",3,"NR","in"
"16",664.083099999523,26796.6175999991,26796.6175999991,7,7,"y",1,"['1', '1', 'space']","n","#000000","no",459839.733100001,1,"neutral","psycho","psycho","psycho",0,"uniform",1,0,0,0,NA,0,0,NA,0,0,0,0,15,15,NA,NA,NA,NA,0,0,0,NA,15,0,15,73.2296414732588,"Mon Nov  1 11:38:23 2021","The main experiment item","yes","red","no","None","circle",NA,"pinging_target_expectations 5.0.osexp","C:\Users\etp-cp-ping\Desktop\LocalPC-EXP",75,"no","mono","no",18,"no","white","no","yes",1050,NA,100,"psycho",15,0,15,"C:/Users/etp-cp-ping/Desktop/LocalPC-EXP/subject-18.csv","psycho",4,16,16,"Lentiform Loewenfeld","3.3.8","['vert', 'hori', 'hori', 'vert', 'hori', 'vert', 'vert', 'hori']","no",209,"None","yes",0,NA,2,"legacy",NA,1024,2,48000,-16,"experiment",18,"even","green","no",0,"diamond",395329.2634,395478.677300001,395478.7935,NA,402625.275,NA,NA,43797.5895999998,6784.85939999973,NA,43797.6134,459249.55,461682.2775,NA,NA,NA,NA,6784.92150000056,403837.1034,NA,NA,459249.5648,404333.4633,459249.4987,"New experiment",19,"[0]","dist_absent",56,19,"yes","yes",1680,NA,NA,NA,NA,"R","R","lp",NA,NA,NA,NA,NA,NA,"practice",0,"NR","in"
"17",1849.14600000047,28645.7635999995,28645.7635999995,8,8,"y",1,"['1', '1', 'space']","n","#000000","no",459839.733100001,1,"neutral","psycho","psycho","psycho",0,"uniform",1,0,0,0,NA,0,0,NA,0,0,0,0,16,16,NA,NA,NA,NA,0,0,0,NA,16,0,16,73.2296414732588,"Mon Nov  1 11:38:23 2021","The main experiment item","yes","red","no","5","diamond",NA,"pinging_target_expectations 5.0.osexp","C:\Users\etp-cp-ping\Desktop\LocalPC-EXP",75,"no","mono","no",18,"no","white","no","yes",1050,NA,100,"psycho",16,0,16,"C:/Users/etp-cp-ping/Desktop/LocalPC-EXP/subject-18.csv","psycho",4,17,17,"Lentiform Loewenfeld","3.3.8","['hori', 'hori', 'hori', 'vert', 'vert', 'vert', 'vert', 'hori']","yes",109,"diamond","yes",0,NA,2,"legacy",NA,1024,2,48000,-16,"experiment",18,"even","green","no",1,"circle",395329.2634,395478.677300001,395478.7935,NA,402625.275,NA,NA,43797.5895999998,6784.85939999973,NA,43797.6134,461713.476,465570.376600001,NA,NA,NA,NA,6784.92150000056,403837.1034,NA,NA,461713.4907,404333.4633,461713.424,"New experiment",19,"[0]","dist_present",56,26,"yes","yes",1680,NA,NA,NA,NA,"NR","NR","lp",NA,NA,NA,NA,NA,NA,"practice",0,"R","in"
"18",1333.28760000039,29979.0511999999,29979.0511999999,9,9,"y",1,"['1', '1', 'space']","n","#000000","no",459839.733100001,1,"neutral","psycho","psycho","psycho",0,"uniform",1,0,0,0,NA,0,0,NA,0,0,0,0,17,17,NA,NA,NA,NA,0,0,0,NA,17,0,17,73.2296414732588,"Mon Nov  1 11:38:23 2021","The main experiment item","yes","green","no","6","diamond",NA,"pinging_target_expectations 5.0.osexp","C:\Users\etp-cp-ping\Desktop\LocalPC-EXP",75,"no","mono","no",18,"no","white","no","yes",1050,NA,100,"psycho",17,0,17,"C:/Users/etp-cp-ping/Desktop/LocalPC-EXP/subject-18.csv","psycho",4,18,18,"Lentiform Loewenfeld","3.3.8","['vert', 'hori', 'vert', 'vert', 'hori', 'hori', 'hori', 'vert']","yes",109,"circles","yes",0,NA,2,"legacy",NA,1024,2,48000,-16,"experiment",18,"even","red","no",7,"circle",395329.2634,395478.677300001,395478.7935,NA,402625.275,NA,NA,43797.5895999998,6784.85939999973,NA,43797.6134,465601.7309,468946.352,NA,NA,NA,NA,6784.92150000056,403837.1034,NA,NA,465601.745800001,404333.4633,465601.6793,"New experiment",19,"[0, 82.8620221621345, 88.54109557414536, 94.08726947544467, 102.8418957311604, 110.16774426955335, 110.1247239239969, 117.21093911426365, 119.48409307742978, 119.67878399236525, 121.18481197057801, 121.98658850824218, 123.14879001607392, 123.56102844936643, 123.11088722854437, 123.08210303254758, 120.86399933582358, 119.12498098111325, 118.22222205077114, 115.49535318118433, 114.89898461274304, 111.29646814163299, 110.71338971907004, 110.66875831680775, 106.95069596402, 106.99594361789559, 106.36023693091323, 106.15087683266844, 103.34376177662989, 103.77399696595101, 100.53601687194849, 100.66759511894503, 100.80539133095519, 97.15511779656124, 97.185418034375, 97.58957959189632, 95.75675211791841, 92.88514761237882, 92.38015008055788, 86.38477138956635, 83.90430626531382, 81.77851226551243, 79.87915100105118, 76.49552456399985]","dist_present",56,87,"yes","yes",1680,NA,NA,NA,NA,"NR","NR","lp",NA,NA,NA,NA,NA,NA,"practice",1,"NR","in"
"19",1194.83399999992,31173.8851999998,31173.8851999998,10,10,"y",1,"['1', '1', 'space']","n","#000000","no",469628.8754,1,"neutral","psycho","psycho","psycho",0,"uniform",1,0,0,0,NA,0,0,NA,0,0,0,0,18,18,NA,NA,NA,NA,0,0,0,NA,18,0,18,73.2296414732588,"Mon Nov  1 11:38:23 2021","The main experiment item","yes","green","no","None","circle",NA,"pinging_target_expectations 5.0.osexp","C:\Users\etp-cp-ping\Desktop\LocalPC-EXP",75,"no","mono","no",18,"no","white","no","yes",1050,NA,100,"psycho",18,0,18,"C:/Users/etp-cp-ping/Desktop/LocalPC-EXP/subject-18.csv","psycho",5,19,19,"Lentiform Loewenfeld","3.3.8","['vert', 'hori', 'hori', 'hori', 'vert', 'vert', 'hori', 'vert']","yes",109,"diamond","yes",0,NA,2,"legacy",NA,1024,2,48000,-16,"experiment",18,"even","red","no",0,"diamond",395329.2634,395478.677300001,395478.7935,NA,402625.275,NA,NA,43797.5895999998,6784.85939999973,NA,43797.6134,468977.675300001,472018.2673,NA,NA,NA,NA,6784.92150000056,403837.1034,NA,NA,468977.69,404333.4633,468977.6228,"New experiment",19,"[0, 82.4007820462651, 98.50001555312359, 124.62494144541748, 147.91675216583906, 179.63084015656028, 209.43676291695783, 246.07855952125388, 285.07016680108774, 327.789734616003, 371.1749739399164, 422.05727988613586, 480.36951127572775, 540.5726938569431, 606.8089323629873, 680.7171692643374, 761.3427984684611, 850.2965191384635, 947.4371035435012, 1041.7627493555462, 1101.0142943153025, 1148.819425159384, 74.62394077386554, 75.94117619059855, 74.70109757890397, 74.87088299929749]","dist_absent",56,19,"yes","yes",1680,NA,NA,NA,NA,"NR","NR","lp",NA,NA,NA,NA,NA,NA,"practice",7,"NR","in"
"20",2000.98920000077,33174.8744000006,33174.8744000006,10,10,"y",1,"['1', '1', 'space']","n","#000000","no",469628.8754,1,"neutral","psycho","psycho","psycho",0,"uniform",0,0,0,0,NA,0,0,NA,0,0,0,0,19,19,NA,NA,NA,NA,0,0,0,NA,19,0,19,73.2296414732588,"Mon Nov  1 11:38:23 2021","The main experiment item","yes","red","no","0","circle",NA,"pinging_target_expectations 5.0.osexp","C:\Users\etp-cp-ping\Desktop\LocalPC-EXP",75,"no","mono","no",18,"no","white","no","yes",1050,NA,100,"psycho",19,0,19,"C:/Users/etp-cp-ping/Desktop/LocalPC-EXP/subject-18.csv","psycho",5,20,20,"Lentiform Loewenfeld","3.3.8","['hori', 'vert', 'vert', 'vert', 'hori', 'vert', 'hori', 'hori']","yes",109,"circles","yes",0,NA,2,"legacy",NA,1024,2,48000,-16,"experiment",18,"even","green","no",2,"diamond",395329.2634,395478.677300001,395478.7935,NA,402625.275,NA,NA,43797.5895999998,6784.85939999973,NA,43797.6134,472049.6113,476014.8824,NA,NA,NA,NA,6784.92150000056,403837.1034,NA,NA,472049.626,404333.4633,472049.5584,"New experiment",19,"[0]","dist_present",56,31,"yes","yes",1680,NA,NA,NA,NA,"NR","NR","lp",NA,"Left",NA,"Left",NA,NA,"practice",0,"NR","in"
"21",2000.53609999939,35175.4105,35175.4105,10,10,"y",1,"['1', '1', 'space']","n","#000000","no",478287.5339,1,"neutral","psycho","psycho","psycho",0,"uniform",0,0,0,0,NA,0,0,NA,0,0,0,0,20,20,NA,NA,NA,NA,0,0,0,NA,20,0,20,73.2296414732588,"Mon Nov  1 11:38:23 2021","The main experiment item","yes","green","no","None","diamond",NA,"pinging_target_expectations 5.0.osexp","C:\Users\etp-cp-ping\Desktop\LocalPC-EXP",75,"no","mono","no",18,"no","white","no","yes",1050,NA,100,"psycho",20,0,20,"C:/Users/etp-cp-ping/Desktop/LocalPC-EXP/subject-18.csv","psycho",7,21,21,"Lentiform Loewenfeld","3.3.8","['vert', 'hori', 'vert', 'hori', 'vert', 'vert', 'hori', 'hori']","no",209,"None","yes",0,NA,2,"legacy",NA,1024,2,48000,-16,"experiment",18,"even","red","no",6,"circle",395329.2634,395478.677300001,395478.7935,NA,402625.275,NA,NA,43797.5895999998,6784.85939999973,NA,43797.6134,476045.937200001,479862.198,NA,NA,NA,NA,6784.92150000056,403837.1034,NA,NA,476045.9517,404333.4633,476045.8866,"New experiment",19,"[0]","dist_absent",56,79,"yes","yes",1680,NA,NA,NA,NA,"NR","NR","lp",NA,"Right",NA,"Right",NA,NA,"practice",2,"NR","in"
"22",2000.87150000036,37176.2820000004,37176.2820000004,10,10,"y",1,"['1', '1', 'space']","n","#000000","no",480899.0401,1,"neutral","psycho","psycho","psycho",0,"uniform",0,0,0,0,NA,0,0,NA,0,0,0,0,21,21,NA,NA,NA,NA,0,0,0,NA,21,0,21,73.2296414732588,"Mon Nov  1 11:38:23 2021","The main experiment item","yes","red","no","4","diamond",NA,"pinging_target_expectations 5.0.osexp","C:\Users\etp-cp-ping\Desktop\LocalPC-EXP",75,"no","mono","no",18,"no","white","no","yes",1050,NA,100,"psycho",21,0,21,"C:/Users/etp-cp-ping/Desktop/LocalPC-EXP/subject-18.csv","psycho",8,22,22,"Lentiform Loewenfeld","3.3.8","['vert', 'hori', 'vert', 'vert', 'hori', 'hori', 'vert', 'hori']","no",209,"None","yes",0,NA,2,"legacy",NA,1024,2,48000,-16,"experiment",18,"even","green","no",6,"circle",395329.2634,395478.677300001,395478.7935,NA,402625.275,NA,NA,43797.5895999998,6784.85939999973,NA,43797.6134,479893.096700001,483698.8109,NA,NA,NA,NA,6784.92150000056,403837.1034,NA,NA,479893.1117,404333.4633,479893.0424,"New experiment",19,"[0]","dist_present",56,75,"yes","yes",1680,NA,NA,NA,NA,"R","NR","lp",NA,"Right",NA,"Right",NA,NA,"practice",6,"NR","in"
"23",1337.83990000031,38514.1219000007,38514.1219000007,10,10,"y",1,"['1', '1', 'space']","n","#000000","no",484550.0648,1,"neutral","psycho","psycho","psycho",0,"uniform",0,0,0,0,NA,0,0,NA,0,0,0,0,22,22,NA,NA,NA,NA,0,0,0,NA,22,0,22,73.2296414732588,"Mon Nov  1 11:38:23 2021","The main experiment item","yes","green","no","3","diamond",NA,"pinging_target_expectations 5.0.osexp","C:\Users\etp-cp-ping\Desktop\LocalPC-EXP",75,"no","mono","no",18,"no","white","no","yes",1050,NA,100,"psycho",22,0,22,"C:/Users/etp-cp-ping/Desktop/LocalPC-EXP/subject-18.csv","psycho",9,23,23,"Lentiform Loewenfeld","3.3.8","['hori', 'hori', 'vert', 'vert', 'hori', 'vert', 'hori', 'vert']","no",209,"None","yes",0,NA,2,"legacy",NA,1024,2,48000,-16,"experiment",18,"even","red","no",2,"circle",395329.2634,395478.677300001,395478.7935,NA,402625.275,NA,NA,43797.5895999998,6784.85939999973,NA,43797.6134,483729.842700001,486962.2577,NA,NA,NA,NA,6784.92150000056,403837.1034,NA,NA,483729.8572,404333.4633,483729.7919,"New experiment",19,"[0]","dist_present",56,34,"yes","yes",1680,NA,NA,NA,NA,"NR","NR","lp",NA,NA,NA,NA,NA,NA,"practice",6,"R","in"
"24",1617.49560000049,40131.6175000012,40131.6175000012,10,10,"y",1,"['1', '1', 'space']","n","#000000","no",484550.0648,1,"neutral","psycho","psycho","psycho",0,"uniform",0,0,0,0,NA,0,0,NA,0,0,0,0,23,23,NA,NA,NA,NA,0,0,0,NA,23,0,23,73.2296414732588,"Mon Nov  1 11:38:23 2021","The main experiment item","yes","green","no","None","diamond",NA,"pinging_target_expectations 5.0.osexp","C:\Users\etp-cp-ping\Desktop\LocalPC-EXP",75,"no","mono","no",18,"no","white","no","yes",1050,NA,100,"psycho",23,0,23,"C:/Users/etp-cp-ping/Desktop/LocalPC-EXP/subject-18.csv","psycho",9,24,24,"Lentiform Loewenfeld","3.3.8","['hori', 'hori', 'hori', 'vert', 'vert', 'vert', 'hori', 'vert']","yes",109,"circles","yes",0,NA,2,"legacy",NA,1024,2,48000,-16,"experiment",18,"even","red","no",1,"circle",395329.2634,395478.677300001,395478.7935,NA,402625.275,NA,NA,43797.5895999998,6784.85939999973,NA,43797.6134,486993.5402,490562.2509,NA,NA,NA,NA,6784.92150000056,403837.1034,NA,NA,486993.5548,404333.4633,486993.4873,"New experiment",19,"[0]","dist_absent",56,29,"yes","yes",1680,NA,NA,NA,NA,"NR","NR","lp",NA,"Left",NA,NA,NA,NA,"practice",2,"NR","in"
"25",1497.13880000036,41628.7563000015,41628.7563000015,11,11,"y",1,"['1', '1', 'space']","n","#000000","no",484550.0648,1,"neutral","psycho","psycho","psycho",0,"uniform",1,0,0,0,NA,0,0,NA,0,0,0,0,24,24,NA,NA,NA,NA,0,0,0,NA,24,0,24,73.2296414732588,"Mon Nov  1 11:38:23 2021","The main experiment item","yes","green","no","None","circle",NA,"pinging_target_expectations 5.0.osexp","C:\Users\etp-cp-ping\Desktop\LocalPC-EXP",75,"no","mono","no",18,"no","white","no","yes",1050,NA,100,"psycho",24,0,24,"C:/Users/etp-cp-ping/Desktop/LocalPC-EXP/subject-18.csv","psycho",9,25,25,"Lentiform Loewenfeld","3.3.8","['vert', 'hori', 'vert', 'hori', 'vert', 'vert', 'hori', 'hori']","yes",109,"diamond","yes",0,NA,2,"legacy",NA,1024,2,48000,-16,"experiment",18,"even","red","no",7,"diamond",395329.2634,395478.677300001,395478.7935,NA,402625.275,NA,NA,43797.5895999998,6784.85939999973,NA,43797.6134,490595.329,494050.2271,NA,NA,NA,NA,6784.92150000056,403837.1034,NA,NA,490595.3439,404333.4633,490595.276900001,"New experiment",19,"[0]","dist_absent",56,89,"yes","yes",1680,NA,NA,NA,NA,"NR","R","lp",NA,"Right",NA,NA,NA,NA,"practice",1,"NR","in"
"26",1409.98940000008,43038.7457000016,43038.7457000016,12,12,"y",1,"['1', '1', 'space']","n","#000000","no",484550.0648,1,"neutral","psycho","psycho","psycho",0,"uniform",1,0,0,0,NA,0,0,NA,0,0,0,0,25,25,NA,NA,NA,NA,0,0,0,NA,25,0,25,73.2296414732588,"Mon Nov  1 11:38:23 2021","The main experiment item","yes","green","no","1","diamond",NA,"pinging_target_expectations 5.0.osexp","C:\Users\etp-cp-ping\Desktop\LocalPC-EXP",75,"no","mono","no",18,"no","white","no","yes",1050,NA,100,"psycho",25,0,25,"C:/Users/etp-cp-ping/Desktop/LocalPC-EXP/subject-18.csv","psycho",9,26,26,"Lentiform Loewenfeld","3.3.8","['vert', 'hori', 'hori', 'vert', 'hori', 'vert', 'hori', 'vert']","no",209,"None","yes",0,NA,2,"legacy",NA,1024,2,48000,-16,"experiment",18,"even","red","no",6,"circle",395329.2634,395478.677300001,395478.7935,NA,402625.275,NA,NA,43797.5895999998,6784.85939999973,NA,43797.6134,494081.4754,497186.3087,NA,NA,NA,NA,6784.92150000056,403837.1034,NA,NA,494081.4899,404333.4633,494081.423600001,"New experiment",19,"[0]","dist_present",56,72,"yes","yes",1680,NA,NA,NA,NA,"NR","NR","lp",NA,NA,NA,NA,NA,NA,"practice",7,"NR","in"
"27",1407.87589999946,44446.6216000011,44446.6216000011,13,13,"y",1,"['1', '1', 'space']","n","#000000","no",484550.0648,1,"neutral","psycho","psycho","psycho",0,"uniform",1,0,0,0,NA,0,0,NA,0,0,0,0,26,26,NA,NA,NA,NA,0,0,0,NA,26,0,26,73.2296414732588,"Mon Nov  1 11:38:23 2021","The main experiment item","yes","green","no","None","diamond",NA,"pinging_target_expectations 5.0.osexp","C:\Users\etp-cp-ping\Desktop\LocalPC-EXP",75,"no","mono","no",18,"no","white","no","yes",1050,NA,100,"psycho",26,0,26,"C:/Users/etp-cp-ping/Desktop/LocalPC-EXP/subject-18.csv","psycho",9,27,27,"Lentiform Loewenfeld","3.3.8","['hori', 'vert', 'hori', 'vert', 'hori', 'vert', 'hori', 'vert']","no",209,"None","yes",0,NA,2,"legacy",NA,1024,2,48000,-16,"experiment",18,"even","red","no",5,"circle",395329.2634,395478.677300001,395478.7935,NA,402625.275,NA,NA,43797.5895999998,6784.85939999973,NA,43797.6134,497218.954800001,500530.2652,NA,NA,NA,NA,6784.92150000056,403837.1034,NA,NA,497218.9692,404333.4633,497218.9029,"New experiment",19,"[0]","dist_absent",56,69,"yes","yes",1680,NA,NA,NA,NA,"NR","NR","lp",NA,"Right",NA,NA,NA,NA,"practice",6,"NR","in"
"28",1933.32700000069,46379.9486000017,46379.9486000017,14,14,"y",1,"['1', '1', 'space']","n","#000000","no",501640.2719,1,"neutral","psycho","psycho","psycho",0,"uniform",1,0,0,0,NA,0,0,NA,0,0,0,0,27,27,NA,NA,NA,NA,0,0,0,NA,27,0,27,73.2296414732588,"Mon Nov  1 11:38:23 2021","The main experiment item","yes","green","no","1","circle",NA,"pinging_target_expectations 5.0.osexp","C:\Users\etp-cp-ping\Desktop\LocalPC-EXP",75,"no","mono","no",18,"no","white","no","yes",1050,NA,100,"psycho",27,0,27,"C:/Users/etp-cp-ping/Desktop/LocalPC-EXP/subject-18.csv","psycho",10,28,28,"Lentiform Loewenfeld","3.3.8","['hori', 'hori', 'vert', 'hori', 'vert', 'hori', 'vert', 'vert']","no",209,"None","yes",0,NA,2,"legacy",NA,1024,2,48000,-16,"experiment",18,"even","red","no",5,"diamond",395329.2634,395478.677300001,395478.7935,NA,402625.275,NA,NA,43797.5895999998,6784.85939999973,NA,43797.6134,500561.647,504386.3468,NA,NA,NA,NA,6784.92150000056,403837.1034,NA,NA,500561.6619,404333.4633,500561.5957,"New experiment",19,"[0]","dist_present",56,62,"yes","yes",1680,NA,NA,NA,NA,"R","NR","lp",NA,NA,NA,NA,NA,NA,"practice",5,"NR","in"
"29",2000.30789999984,48380.2565000016,48380.2565000016,14,14,"y",1,"['1', '1', 'space']","n","#000000","no",501640.2719,1,"neutral","psycho","psycho","psycho",0,"uniform",0,0,0,0,NA,0,0,NA,0,0,0,0,28,28,NA,NA,NA,NA,0,0,0,NA,28,0,28,73.2296414732588,"Mon Nov  1 11:38:23 2021","The main experiment item","yes","red","no","3","circle",NA,"pinging_target_expectations 5.0.osexp","C:\Users\etp-cp-ping\Desktop\LocalPC-EXP",75,"no","mono","no",18,"no","white","no","yes",1050,NA,100,"psycho",28,0,28,"C:/Users/etp-cp-ping/Desktop/LocalPC-EXP/subject-18.csv","psycho",10,29,29,"Lentiform Loewenfeld","3.3.8","['hori', 'vert', 'hori', 'vert', 'vert', 'hori', 'vert', 'hori']","no",209,"None","yes",0,NA,2,"legacy",NA,1024,2,48000,-16,"experiment",18,"even","green","no",5,"diamond",395329.2634,395478.677300001,395478.7935,NA,402625.275,NA,NA,43797.5895999998,6784.85939999973,NA,43797.6134,504417.6899,508296.606800001,NA,NA,NA,NA,6784.92150000056,403837.1034,NA,NA,504417.7044,404333.4633,504417.6389,"New experiment",19,"[0]","dist_present",56,64,"yes","yes",1680,NA,NA,NA,NA,"R","NR","lp",NA,NA,NA,NA,NA,NA,"practice",5,"R","in"
"30",1064.60770000011,49444.8642000017,49444.8642000017,15,15,"y",1,"['1', '1', 'space']","n","#000000","no",501640.2719,1,"neutral","psycho","psycho","psycho",0,"uniform",1,0,0,0,NA,0,0,NA,0,0,0,0,29,29,NA,NA,NA,NA,0,0,0,NA,29,0,29,73.2296414732588,"Mon Nov  1 11:38:23 2021","The main experiment item","yes","red","no","3","diamond",NA,"pinging_target_expectations 5.0.osexp","C:\Users\etp-cp-ping\Desktop\LocalPC-EXP",75,"no","mono","no",18,"no","white","no","yes",1050,NA,100,"psycho",29,0,29,"C:/Users/etp-cp-ping/Desktop/LocalPC-EXP/subject-18.csv","psycho",10,30,30,"Lentiform Loewenfeld","3.3.8","['vert', 'hori', 'hori', 'hori', 'vert', 'hori', 'vert', 'vert']","yes",109,"circles","yes",0,NA,2,"legacy",NA,1024,2,48000,-16,"experiment",18,"even","green","no",5,"circle",395329.2634,395478.677300001,395478.7935,NA,402625.275,NA,NA,43797.5895999998,6784.85939999973,NA,43797.6134,508329.3964,511282.2025,NA,NA,NA,NA,6784.92150000056,403837.1034,NA,NA,508329.4108,404333.4633,508329.3465,"New experiment",19,"[0]","dist_present",56,64,"yes","yes",1680,NA,NA,NA,NA,"R","R","lp",NA,NA,NA,NA,NA,NA,"practice",5,"R","in"
"31",2000.68539999938,51445.5496000011,51445.5496000011,15,15,"y",1,"['1', '1', 'space']","n","#000000","no",501640.2719,1,"neutral","psycho","psycho","psycho",0,"uniform",0,0,0,0,NA,0,0,NA,0,0,0,0,30,30,NA,NA,NA,NA,0,0,0,NA,30,0,30,73.2296414732588,"Mon Nov  1 11:38:23 2021","The main experiment item","yes","red","no","None","circle",NA,"pinging_target_expectations 5.0.osexp","C:\Users\etp-cp-ping\Desktop\LocalPC-EXP",75,"no","mono","no",18,"no","white","no","yes",1050,NA,100,"psycho",30,0,30,"C:/Users/etp-cp-ping/Desktop/LocalPC-EXP/subject-18.csv","psycho",10,31,31,"Lentiform Loewenfeld","3.3.8","['hori', 'hori', 'vert', 'hori', 'vert', 'vert', 'hori', 'vert']","yes",109,"circles","yes",0,NA,2,"legacy",NA,1024,2,48000,-16,"experiment",18,"even","green","no",5,"diamond",395329.2634,395478.677300001,395478.7935,NA,402625.275,NA,NA,43797.5895999998,6784.85939999973,NA,43797.6134,511314.436600001,515249.7257,NA,NA,NA,NA,6784.92150000056,403837.1034,NA,NA,511314.4517,404333.4633,511314.3845,"New experiment",19,"[0]","dist_absent",56,69,"yes","yes",1680,NA,NA,NA,NA,"R","NR","lp",NA,"Right",NA,NA,NA,NA,"practice",5,"R","in"
"32",2000.18109999929,53445.7307000004,53445.7307000004,15,15,"y",1,"['1', '1', 'space']","n","#000000","no",517356.057800001,1,"neutral","psycho","psycho","psycho",0,"uniform",0,0,0,0,NA,0,0,NA,0,0,0,0,31,31,NA,NA,NA,NA,0,0,0,NA,31,0,31,73.2296414732588,"Mon Nov  1 11:38:23 2021","The main experiment item","yes","green","no","None","diamond",NA,"pinging_target_expectations 5.0.osexp","C:\Users\etp-cp-ping\Desktop\LocalPC-EXP",75,"no","mono","no",18,"no","white","no","yes",1050,NA,100,"psycho",31,0,31,"C:/Users/etp-cp-ping/Desktop/LocalPC-EXP/subject-18.csv","psycho",12,32,32,"Lentiform Loewenfeld","3.3.8","['hori', 'hori', 'hori', 'vert', 'vert', 'vert', 'hori', 'vert']","no",209,"None","yes",0,NA,2,"legacy",NA,1024,2,48000,-16,"experiment",18,"even","red","no",7,"circle",395329.2634,395478.677300001,395478.7935,NA,402625.275,NA,NA,43797.5895999998,6784.85939999973,NA,43797.6134,515280.6226,519207.5477,NA,NA,NA,NA,6784.92150000056,403837.1034,NA,NA,515280.6372,404333.4633,515280.5703,"New experiment",19,"[0]","dist_absent",56,89,"yes","yes",1680,NA,NA,NA,NA,"NR","R","lp",NA,"Right",NA,NA,NA,NA,"practice",5,"R","in"
"33",1984.67450000043,55430.4052000008,55430.4052000008,16,16,"y",1,"['1', '1', 'space']","n","#000000","no",519907.611000001,1,"neutral","psycho","psycho","psycho",0,"uniform",1,0,0,0,NA,0,0,NA,0,0,0,0,32,32,NA,NA,NA,NA,0,0,0,NA,32,0,32,73.2296414732588,"Mon Nov  1 11:38:23 2021","The main experiment item","yes","red","no","2","diamond",NA,"pinging_target_expectations 5.0.osexp","C:\Users\etp-cp-ping\Desktop\LocalPC-EXP",75,"no","mono","no",18,"no","white","no","yes",1050,NA,100,"psycho",32,0,32,"C:/Users/etp-cp-ping/Desktop/LocalPC-EXP/subject-18.csv","psycho",13,33,33,"Lentiform Loewenfeld","3.3.8","['hori', 'vert', 'vert', 'hori', 'hori', 'vert', 'vert', 'hori']","yes",109,"circles","yes",0,NA,2,"legacy",NA,1024,2,48000,-16,"experiment",18,"even","green","no",5,"circle",395329.2634,395478.677300001,395478.7935,NA,402625.275,NA,NA,43797.5895999998,6784.85939999973,NA,43797.6134,519238.553300001,523026.2751,NA,NA,NA,NA,6784.92150000056,403837.1034,NA,NA,519238.5677,404333.4633,519238.5019,"New experiment",19,"[0]","dist_present",56,63,"yes","yes",1680,NA,NA,NA,NA,"NR","NR","lp",NA,NA,NA,NA,NA,NA,"practice",7,"NR","in"
"34",1377.26319999993,56807.6684000007,56807.6684000007,17,17,"y",1,"['1', '1', 'space']","n","#000000","no",519907.611000001,1,"neutral","psycho","psycho","psycho",0,"uniform",1,0,0,0,NA,0,0,NA,0,0,0,0,33,33,NA,NA,NA,NA,0,0,0,NA,33,0,33,73.2296414732588,"Mon Nov  1 11:38:23 2021","The main experiment item","yes","red","no","7","circle",NA,"pinging_target_expectations 5.0.osexp","C:\Users\etp-cp-ping\Desktop\LocalPC-EXP",75,"no","mono","no",18,"no","white","no","yes",1050,NA,100,"psycho",33,0,33,"C:/Users/etp-cp-ping/Desktop/LocalPC-EXP/subject-18.csv","psycho",13,34,34,"Lentiform Loewenfeld","3.3.8","['vert', 'hori', 'vert', 'hori', 'vert', 'hori', 'hori', 'vert']","yes",109,"circles","yes",0,NA,2,"legacy",NA,1024,2,48000,-16,"experiment",18,"even","green","no",1,"diamond",395329.2634,395478.677300001,395478.7935,NA,402625.275,NA,NA,43797.5895999998,6784.85939999973,NA,43797.6134,523057.6203,526386.1831,NA,NA,NA,NA,6784.92150000056,403837.1034,NA,NA,523057.6349,404333.4633,523057.5673,"New experiment",19,"[0]","dist_present",56,28,"yes","yes",1680,NA,NA,NA,NA,"NR","NR","lp",NA,NA,NA,NA,NA,NA,"practice",5,"NR","in"
"35",2000.24279999977,58807.9112000005,58807.9112000005,17,17,"y",1,"['1', '1', 'space']","n","#000000","no",528329.6272,1,"neutral","psycho","psycho","psycho",0,"uniform",0,0,0,0,NA,0,0,NA,0,0,0,0,34,34,NA,NA,NA,NA,0,0,0,NA,34,0,34,73.2296414732588,"Mon Nov  1 11:38:23 2021","The main experiment item","yes","red","no","4","circle",NA,"pinging_target_expectations 5.0.osexp","C:\Users\etp-cp-ping\Desktop\LocalPC-EXP",75,"no","mono","no",18,"no","white","no","yes",1050,NA,100,"psycho",34,0,34,"C:/Users/etp-cp-ping/Desktop/LocalPC-EXP/subject-18.csv","psycho",14,35,35,"Lentiform Loewenfeld","3.3.8","['hori', 'hori', 'vert', 'vert', 'vert', 'vert', 'hori', 'hori']","yes",109,"diamond","yes",0,NA,2,"legacy",NA,1024,2,48000,-16,"experiment",18,"even","green","no",3,"diamond",395329.2634,395478.677300001,395478.7935,NA,402625.275,NA,NA,43797.5895999998,6784.85939999973,NA,43797.6134,526417.4267,530401.954800001,NA,NA,NA,NA,6784.92150000056,403837.1034,NA,NA,526417.4412,404333.4633,526417.3742,"New experiment",19,"[0, 86.50344160874175, 114.00444256609163, 147.0168070499966, 195.23718321560094, 238.83571759684523, 296.2088212455736, 354.12770968342164, 423.89591404303957, 500.4343313684697, 585.599710783342, 674.3191144374491, 812.2399662317433, 928.3725750003046, 1001.2632441737293, 1011.050292387967, 73.92010510325902, 79.15114464574226, 79.89155390742368, 83.01593680830749, 84.52843245651302, 85.22467728115213, 83.03184925510695, 81.444238137402, 81.7403937488375, 81.74350127074322, 77.10463175635068, 73.99902993056503, 73.96923943483903, 73.45943257923676, 73.7138251620402, 73.69292937152257, 73.57310750837051, 73.37411233758621, 73.74261479840459, 73.44396560634213, 73.34445891354649, 73.45370383068547]","dist_present",56,45,"yes","yes",1680,NA,NA,NA,NA,"NR","NR","lp",NA,"Left",NA,NA,NA,NA,"practice",1,"NR","in"
"36",2000.24130000023,60808.1525000007,60808.1525000007,17,17,"y",1,"['1', '1', 'space']","n","#000000","no",528329.6272,1,"neutral","psycho","psycho","psycho",0,"uniform",0,0,0,0,NA,0,0,NA,0,0,0,0,35,35,NA,NA,NA,NA,0,0,0,NA,35,0,35,73.2296414732588,"Mon Nov  1 11:38:23 2021","The main experiment item","yes","green","no","3","circle",NA,"pinging_target_expectations 5.0.osexp","C:\Users\etp-cp-ping\Desktop\LocalPC-EXP",75,"no","mono","no",18,"no","white","no","yes",1050,NA,100,"psycho",35,0,35,"C:/Users/etp-cp-ping/Desktop/LocalPC-EXP/subject-18.csv","psycho",14,36,36,"Lentiform Loewenfeld","3.3.8","['vert', 'hori', 'vert', 'vert', 'hori', 'hori', 'hori', 'vert']","yes",109,"diamond","yes",0,NA,2,"legacy",NA,1024,2,48000,-16,"experiment",18,"even","red","no",4,"diamond",395329.2634,395478.677300001,395478.7935,NA,402625.275,NA,NA,43797.5895999998,6784.85939999973,NA,43797.6134,530432.9318,534318.8996,NA,NA,NA,NA,6784.92150000056,403837.1034,NA,NA,530432.9464,404333.4633,530432.8799,"New experiment",19,"[0]","dist_present",56,54,"yes","yes",1680,NA,NA,NA,NA,"NR","NR","lp","Left",NA,NA,NA,NA,NA,"practice",3,"NR","in"
"37",2000.09199999936,62808.2445000001,62808.2445000001,17,17,"y",1,"['1', '1', 'space']","n","#000000","no",535129.715300001,1,"neutral","psycho","psycho","psycho",0,"uniform",0,0,0,0,NA,0,0,NA,0,0,0,0,36,36,NA,NA,NA,NA,0,0,0,NA,36,0,36,73.2296414732588,"Mon Nov  1 11:38:23 2021","The main experiment item","yes","green","no","0","diamond",NA,"pinging_target_expectations 5.0.osexp","C:\Users\etp-cp-ping\Desktop\LocalPC-EXP",75,"no","mono","no",18,"no","white","no","yes",1050,NA,100,"psycho",36,0,36,"C:/Users/etp-cp-ping/Desktop/LocalPC-EXP/subject-18.csv","psycho",15,37,37,"Lentiform Loewenfeld","3.3.8","['vert', 'hori', 'hori', 'vert', 'hori', 'vert', 'vert', 'hori']","no",209,"None","yes",0,NA,2,"legacy",NA,1024,2,48000,-16,"experiment",18,"even","red","no",4,"circle",395329.2634,395478.677300001,395478.7935,NA,402625.275,NA,NA,43797.5895999998,6784.85939999973,NA,43797.6134,534350.122,538264.1163,NA,NA,NA,NA,6784.92150000056,403837.1034,NA,NA,534350.137,404333.4633,534350.0703,"New experiment",19,"[0]","dist_present",56,51,"yes","yes",1680,NA,NA,NA,NA,"R","NR","lp",NA,NA,NA,NA,NA,NA,"practice",4,"NR","in"
"38",1404.77850000025,64213.0230000003,64213.0230000003,18,18,"y",1,"['1', '1', 'space']","n","#000000","no",538784.7766,1,"neutral","psycho","psycho","psycho",0,"uniform",1,0,0,0,NA,0,0,NA,0,0,0,0,37,37,NA,NA,NA,NA,0,0,0,NA,37,0,37,73.2296414732588,"Mon Nov  1 11:38:23 2021","The main experiment item","yes","red","no","None","circle",NA,"pinging_target_expectations 5.0.osexp","C:\Users\etp-cp-ping\Desktop\LocalPC-EXP",75,"no","mono","no",18,"no","white","no","yes",1050,NA,100,"psycho",37,0,37,"C:/Users/etp-cp-ping/Desktop/LocalPC-EXP/subject-18.csv","psycho",16,38,38,"Lentiform Loewenfeld","3.3.8","['vert', 'vert', 'vert', 'vert', 'hori', 'hori', 'hori', 'hori']","yes",109,"circles","yes",0,NA,2,"legacy",NA,1024,2,48000,-16,"experiment",18,"even","green","no",3,"diamond",395329.2634,395478.677300001,395478.7935,NA,402625.275,NA,NA,43797.5895999998,6784.85939999973,NA,43797.6134,538299.6173,541522.2198,NA,NA,NA,NA,6784.92150000056,403837.1034,NA,NA,538299.631800001,404333.4633,538299.561,"New experiment",19,"[0]","dist_absent",56,49,"yes","yes",1680,NA,NA,NA,NA,"NR","NR","lp",NA,"Left",NA,NA,NA,NA,"practice",4,"R","in"
"39",2000.39199999999,66213.4150000003,66213.4150000003,18,18,"y",1,"['1', '1', 'space']","n","#000000","no",543491.8583,1,"neutral","psycho","psycho","psycho",0,"uniform",0,0,0,0,NA,0,0,NA,0,0,0,0,38,38,NA,NA,NA,NA,0,0,0,NA,38,0,38,73.2296414732588,"Mon Nov  1 11:38:23 2021","The main experiment item","yes","red","no","2","circle",NA,"pinging_target_expectations 5.0.osexp","C:\Users\etp-cp-ping\Desktop\LocalPC-EXP",75,"no","mono","no",18,"no","white","no","yes",1050,NA,100,"psycho",38,0,38,"C:/Users/etp-cp-ping/Desktop/LocalPC-EXP/subject-18.csv","psycho",17,39,39,"Lentiform Loewenfeld","3.3.8","['vert', 'vert', 'hori', 'hori', 'hori', 'hori', 'vert', 'vert']","yes",109,"diamond","yes",0,NA,2,"legacy",NA,1024,2,48000,-16,"experiment",18,"even","green","no",0,"diamond",395329.2634,395478.677300001,395478.7935,NA,402625.275,NA,NA,43797.5895999998,6784.85939999973,NA,43797.6134,541553.5999,545614.6299,NA,NA,NA,NA,6784.92150000056,403837.1034,NA,NA,541553.614500001,404333.4633,541553.5479,"New experiment",19,"[0]","dist_present",56,13,"yes","yes",1680,NA,NA,NA,NA,"NR","NR","lp","Left",NA,"Left",NA,NA,NA,"practice",3,"NR","in"
"40",1189.98490000016,67403.3999000005,67403.3999000005,18,18,"y",1,"['1', '1', 'space']","n","#000000","no",543491.8583,1,"neutral","psycho","psycho","psycho",0,"uniform",0,0,0,0,NA,0,0,NA,0,0,0,0,39,39,NA,NA,NA,NA,0,0,0,NA,39,0,39,73.2296414732588,"Mon Nov  1 11:38:23 2021","The main experiment item","yes","green","no","3","diamond",NA,"pinging_target_expectations 5.0.osexp","C:\Users\etp-cp-ping\Desktop\LocalPC-EXP",75,"no","mono","no",18,"no","white","no","yes",1050,NA,100,"psycho",39,0,39,"C:/Users/etp-cp-ping/Desktop/LocalPC-EXP/subject-18.csv","psycho",17,40,40,"Lentiform Loewenfeld","3.3.8","['hori', 'vert', 'hori', 'vert', 'hori', 'vert', 'vert', 'hori']","yes",109,"circles","yes",0,NA,2,"legacy",NA,1024,2,48000,-16,"experiment",18,"even","red","no",1,"circle",395329.2634,395478.677300001,395478.7935,NA,402625.275,NA,NA,43797.5895999998,6784.85939999973,NA,43797.6134,545645.6045,548658.1349,NA,NA,NA,NA,6784.92150000056,403837.1034,NA,NA,545645.6194,404333.4633,545645.553,"New experiment",19,"[0]","dist_present",56,24,"yes","yes",1680,NA,NA,NA,NA,"NR","NR","lp",NA,NA,NA,NA,NA,NA,"practice",0,"NR","in"
"41",1204.35619999992,68607.7561000004,68607.7561000004,19,19,"y",1,"['1', '1', 'space']","n","#000000","no",550808.6843,1,"neutral","psycho","psycho","psycho",0,"uniform",1,0,0,0,NA,0,0,NA,0,0,0,0,40,40,NA,NA,NA,NA,0,0,0,NA,40,0,40,73.2296414732588,"Mon Nov  1 11:38:23 2021","The main experiment item","yes","green","no","4","circle",NA,"pinging_target_expectations 5.0.osexp","C:\Users\etp-cp-ping\Desktop\LocalPC-EXP",75,"no","mono","no",18,"no","white","no","yes",1050,NA,100,"psycho",40,0,40,"C:/Users/etp-cp-ping/Desktop/LocalPC-EXP/subject-18.csv","psycho",18,41,41,"Lentiform Loewenfeld","3.3.8","['hori', 'vert', 'vert', 'vert', 'hori', 'hori', 'hori', 'vert']","yes",109,"diamond","yes",0,NA,2,"legacy",NA,1024,2,48000,-16,"experiment",18,"even","red","no",7,"diamond",395329.2634,395478.677300001,395478.7935,NA,402625.275,NA,NA,43797.5895999998,6784.85939999973,NA,43797.6134,548689.378,551938.078300001,NA,NA,NA,NA,6784.92150000056,403837.1034,NA,NA,548689.3925,404333.4633,548689.3263,"New experiment",19,"[0, 78.97040844618598, 82.94727240844028, 92.17255999173499, 96.77890198354815, 111.58180855318666, 119.9643481890621, 132.04639336233308, 144.14916532964966, 161.35088712757738, 179.74007012922672, 192.4046153381417, 214.94083680212213, 235.79876783209355, 263.18305822417744, 293.1528277452569, 323.9482983440413, 359.8564383686252, 398.44095797519196, 440.4196078530633, 495.24475808941116, 550.7026296812929, 616.0177497525996]","dist_present",56,85,"yes","no",1680,NA,NA,NA,NA,"NR","NR","lp",NA,"Right",NA,NA,NA,NA,"practice",1,"NR","in"
"42",2000.07180000015,70607.8279000006,70607.8279000006,19,19,"y",1,"['1', '1', 'space']","n","#000000","no",553958.3574,1,"neutral","psycho","psycho","psycho",0,"uniform",0,0,0,0,NA,0,0,NA,0,0,0,0,41,41,NA,NA,NA,NA,0,0,0,NA,41,0,41,73.2296414732588,"Mon Nov  1 11:38:23 2021","The main experiment item","yes","green","no","5","circle",NA,"pinging_target_expectations 5.0.osexp","C:\Users\etp-cp-ping\Desktop\LocalPC-EXP",75,"no","mono","no",18,"no","white","no","yes",1050,NA,100,"psycho",41,0,41,"C:/Users/etp-cp-ping/Desktop/LocalPC-EXP/subject-18.csv","psycho",19,42,42,"Lentiform Loewenfeld","3.3.8","['hori', 'vert', 'hori', 'vert', 'hori', 'vert', 'hori', 'vert']","yes",109,"circles","yes",0,NA,2,"legacy",NA,1024,2,48000,-16,"experiment",18,"even","red","no",4,"diamond",395329.2634,395478.677300001,395478.7935,NA,402625.275,NA,NA,43797.5895999998,6784.85939999973,NA,43797.6134,551969.223,555978.0005,NA,NA,NA,NA,6784.92150000056,403837.1034,NA,NA,551969.2371,404333.4633,551969.1724,"New experiment",19,"[0]","dist_present",56,56,"yes","yes",1680,NA,NA,NA,NA,"NR","NR","lp","Right",NA,NA,NA,NA,NA,"practice",7,"NR","in"
"43",2000.22079999966,72608.0487000002,72608.0487000002,19,19,"y",1,"['1', '1', 'space']","n","#000000","no",553958.3574,1,"neutral","psycho","psycho","psycho",0,"uniform",0,0,0,0,NA,0,0,NA,0,0,0,0,42,42,NA,NA,NA,NA,0,0,0,NA,42,0,42,73.2296414732588,"Mon Nov  1 11:38:23 2021","The main experiment item","yes","red","no","2","diamond",NA,"pinging_target_expectations 5.0.osexp","C:\Users\etp-cp-ping\Desktop\LocalPC-EXP",75,"no","mono","no",18,"no","white","no","yes",1050,NA,100,"psycho",42,0,42,"C:/Users/etp-cp-ping/Desktop/LocalPC-EXP/subject-18.csv","psycho",19,43,43,"Lentiform Loewenfeld","3.3.8","['vert', 'vert', 'hori', 'hori', 'hori', 'vert', 'hori', 'vert']","yes",109,"diamond","yes",0,NA,2,"legacy",NA,1024,2,48000,-16,"experiment",18,"even","green","no",0,"circle",395329.2634,395478.677300001,395478.7935,NA,402625.275,NA,NA,43797.5895999998,6784.85939999973,NA,43797.6134,556009.0043,559647.6905,NA,NA,NA,NA,6784.92150000056,403837.1034,NA,NA,556009.019,404333.4633,556008.9518,"New experiment",19,"[0]","dist_present",56,13,"yes","yes",1680,NA,NA,NA,NA,"NR","NR","lp","Left",NA,"Left",NA,NA,NA,"practice",4,"NR","in"
"44",1654.51639999996,74262.5651000002,74262.5651000002,20,20,"y",1,"['1', '1', 'space']","n","#000000","no",553958.3574,1,"neutral","psycho","psycho","psycho",0,"uniform",1,0,0,0,NA,0,0,NA,0,0,0,0,43,43,NA,NA,NA,NA,0,0,0,NA,43,0,43,73.2296414732588,"Mon Nov  1 11:38:23 2021","The main experiment item","yes","red","no","6","diamond",NA,"pinging_target_expectations 5.0.osexp","C:\Users\etp-cp-ping\Desktop\LocalPC-EXP",75,"no","mono","no",18,"no","white","no","yes",1050,NA,100,"psycho",43,0,43,"C:/Users/etp-cp-ping/Desktop/LocalPC-EXP/subject-18.csv","psycho",19,44,44,"Lentiform Loewenfeld","3.3.8","['hori', 'hori', 'hori', 'vert', 'vert', 'vert', 'vert', 'hori']","yes",109,"circles","yes",0,NA,2,"legacy",NA,1024,2,48000,-16,"experiment",18,"even","green","no",7,"circle",395329.2634,395478.677300001,395478.7935,NA,402625.275,NA,NA,43797.5895999998,6784.85939999973,NA,43797.6134,559678.6804,562994.122900001,NA,NA,NA,NA,6784.92150000056,403837.1034,NA,NA,559678.695000001,404333.4633,559678.6285,"New experiment",19,"[0]","dist_present",56,87,"yes","yes",1680,NA,NA,NA,NA,"NR","NR","lp",NA,NA,NA,NA,NA,NA,"practice",0,"NR","in"
"45",1221.58020000008,75484.1453000003,75484.1453000003,21,21,"y",1,"['1', '1', 'space']","n","#000000","no",553958.3574,1,"neutral","psycho","psycho","psycho",0,"uniform",1,0,0,0,NA,0,0,NA,0,0,0,0,44,44,NA,NA,NA,NA,0,0,0,NA,44,0,44,73.2296414732588,"Mon Nov  1 11:38:23 2021","The main experiment item","yes","green","no","1","circle",NA,"pinging_target_expectations 5.0.osexp","C:\Users\etp-cp-ping\Desktop\LocalPC-EXP",75,"no","mono","no",18,"no","white","no","yes",1050,NA,100,"psycho",44,0,44,"C:/Users/etp-cp-ping/Desktop/LocalPC-EXP/subject-18.csv","psycho",19,45,45,"Lentiform Loewenfeld","3.3.8","['hori', 'hori', 'hori', 'vert', 'vert', 'hori', 'vert', 'vert']","no",209,"None","yes",0,NA,2,"legacy",NA,1024,2,48000,-16,"experiment",18,"even","red","no",3,"diamond",395329.2634,395478.677300001,395478.7935,NA,402625.275,NA,NA,43797.5895999998,6784.85939999973,NA,43797.6134,563025.3398,566274.195200001,NA,NA,NA,NA,6784.92150000056,403837.1034,NA,NA,563025.3546,404333.4633,563025.284,"New experiment",19,"[0]","dist_present",56,42,"yes","yes",1680,NA,NA,NA,NA,"NR","NR","lp",NA,NA,NA,NA,NA,NA,"practice",7,"NR","in"
"46",2000.20219999983,77484.3475000001,77484.3475000001,21,21,"y",1,"['1', '1', 'space']","n","#000000","no",566701.1713,1,"neutral","psycho","psycho","psycho",0,"uniform",0,0,0,0,NA,0,0,NA,0,0,0,0,45,45,NA,NA,NA,NA,0,0,0,NA,45,0,45,73.2296414732588,"Mon Nov  1 11:38:23 2021","The main experiment item","yes","red","no","7","diamond",NA,"pinging_target_expectations 5.0.osexp","C:\Users\etp-cp-ping\Desktop\LocalPC-EXP",75,"no","mono","no",18,"no","white","no","yes",1050,NA,100,"psycho",45,0,45,"C:/Users/etp-cp-ping/Desktop/LocalPC-EXP/subject-18.csv","psycho",20,46,46,"Lentiform Loewenfeld","3.3.8","['vert', 'hori', 'vert', 'hori', 'vert', 'hori', 'hori', 'vert']","no",209,"None","yes",0,NA,2,"legacy",NA,1024,2,48000,-16,"experiment",18,"even","green","no",6,"circle",395329.2634,395478.677300001,395478.7935,NA,402625.275,NA,NA,43797.5895999998,6784.85939999973,NA,43797.6134,566305.2742,570260.7604,NA,NA,NA,NA,6784.92150000056,403837.1034,NA,NA,566305.288600001,404333.4633,566305.2225,"New experiment",19,"[0]","dist_present",56,78,"yes","yes",1680,NA,NA,NA,NA,"NR","NR","lp",NA,NA,NA,NA,NA,NA,"practice",3,"NR","in"
"47",2000.97039999941,79485.3178999995,79485.3178999995,21,21,"y",1,"['1', '1', 'space']","n","#000000","no",566701.1713,1,"neutral","psycho","psycho","psycho",0,"uniform",0,0,0,0,NA,0,0,NA,0,0,0,0,46,46,NA,NA,NA,NA,0,0,0,NA,46,0,46,73.2296414732588,"Mon Nov  1 11:38:23 2021","The main experiment item","yes","green","no","None","circle",NA,"pinging_target_expectations 5.0.osexp","C:\Users\etp-cp-ping\Desktop\LocalPC-EXP",75,"no","mono","no",18,"no","white","no","yes",1050,NA,100,"psycho",46,0,46,"C:/Users/etp-cp-ping/Desktop/LocalPC-EXP/subject-18.csv","psycho",20,47,47,"Lentiform Loewenfeld","3.3.8","['vert', 'vert', 'hori', 'hori', 'vert', 'hori', 'hori', 'vert']","no",209,"None","yes",0,NA,2,"legacy",NA,1024,2,48000,-16,"experiment",18,"even","red","no",5,"diamond",395329.2634,395478.677300001,395478.7935,NA,402625.275,NA,NA,43797.5895999998,6784.85939999973,NA,43797.6134,570291.7129,574124.1653,NA,NA,NA,NA,6784.92150000056,403837.1034,NA,NA,570291.7275,404333.4633,570291.6617,"New experiment",19,"[0]","dist_absent",56,69,"yes","yes",1680,NA,NA,NA,NA,"NR","NR","lp",NA,"Right",NA,NA,NA,NA,"practice",6,"NR","in"
"48",2000.22529999935,81485.5431999989,81485.5431999989,21,21,"y",1,"['1', '1', 'space']","n","#000000","no",575433.8765,1,"neutral","psycho","psycho","psycho",0,"uniform",0,0,0,0,NA,0,0,NA,0,0,0,0,47,47,NA,NA,NA,NA,0,0,0,NA,47,0,47,73.2296414732588,"Mon Nov  1 11:38:23 2021","The main experiment item","yes","red","no","0","circle",NA,"pinging_target_expectations 5.0.osexp","C:\Users\etp-cp-ping\Desktop\LocalPC-EXP",75,"no","mono","no",18,"no","white","no","yes",1050,NA,100,"psycho",47,0,47,"C:/Users/etp-cp-ping/Desktop/LocalPC-EXP/subject-18.csv","psycho",21,48,48,"Lentiform Loewenfeld","3.3.8","['vert', 'vert', 'hori', 'hori', 'vert', 'hori', 'hori', 'vert']","yes",109,"diamond","yes",0,NA,2,"legacy",NA,1024,2,48000,-16,"experiment",18,"even","green","no",4,"diamond",395329.2634,395478.677300001,395478.7935,NA,402625.275,NA,NA,43797.5895999998,6784.85939999973,NA,43797.6134,574155.4004,578198.0604,NA,NA,NA,NA,6784.92150000056,403837.1034,NA,NA,574155.4148,404333.4633,574155.348,"New experiment",19,"[0]","dist_present",56,51,"yes","yes",1680,NA,NA,NA,NA,"NR","NR","lp",NA,NA,NA,NA,NA,NA,"practice",5,"NR","in"
"49",1867.46729999955,83353.0104999984,83353.0104999984,22,22,"y",1,"['1', '1', 'space']","n","#000000","no",579381.332,1,"neutral","psycho","psycho","psycho",0,"uniform",1,0,0,0,NA,0,0,NA,0,0,0,0,48,48,NA,NA,NA,NA,0,0,0,NA,48,0,48,73.2296414732588,"Mon Nov  1 11:38:23 2021","The main experiment item","yes","red","no","None","circle",NA,"pinging_target_expectations 5.0.osexp","C:\Users\etp-cp-ping\Desktop\LocalPC-EXP",75,"no","mono","no",18,"no","white","no","yes",1050,NA,100,"psycho",48,0,48,"C:/Users/etp-cp-ping/Desktop/LocalPC-EXP/subject-18.csv","psycho",22,49,49,"Lentiform Loewenfeld","3.3.8","['vert', 'hori', 'hori', 'vert', 'vert', 'vert', 'hori', 'hori']","no",209,"None","yes",0,NA,2,"legacy",NA,1024,2,48000,-16,"experiment",18,"even","green","no",1,"diamond",395329.2634,395478.677300001,395478.7935,NA,402625.275,NA,NA,43797.5895999998,6784.85939999973,NA,43797.6134,578229.2735,581778.0836,NA,NA,NA,NA,6784.92150000056,403837.1034,NA,NA,578229.2882,404333.4633,578229.2218,"New experiment",19,"[0, 75.37226091105433, 110.33088666925232, 160.164011915573, 211.1546493506196, 265.16880566085865, 326.7447611036659, 385.89203424627357, 455.1560804850789, 533.0864385141845, 609.7318312624743, 693.3792184449215, 843.4433022766118, 936.62430271613, 994.0273623839383, 991.1375262162292, 990.0926478088392, 73.86454071309517, 80.08957633060969, 81.32974897814424, 82.21782785407098, 81.19933662331673, 79.66028462957976, 77.11970303490277, 76.81228858862984, 75.88155964231755, 76.9729707277587, 75.6222776337239, 75.71657509193433, 75.77769311885034, 75.52086055136127, 74.90260065552546]","dist_absent",56,29,"yes","yes",1680,NA,NA,NA,NA,"NR","NR","lp",NA,"Left",NA,NA,NA,NA,"practice",4,"NR","in"
"50",1929.28539999959,85282.295899998,85282.295899998,23,23,"y",1,"['1', '1', 'space']","n","#000000","no",579381.332,1,"neutral","psycho","psycho","psycho",0,"uniform",1,0,0,0,NA,0,0,NA,0,0,0,0,49,49,NA,NA,NA,NA,0,0,0,NA,49,0,49,73.2296414732588,"Mon Nov  1 11:38:23 2021","The main experiment item","yes","red","no","7","diamond",NA,"pinging_target_expectations 5.0.osexp","C:\Users\etp-cp-ping\Desktop\LocalPC-EXP",75,"no","mono","no",18,"no","white","no","yes",1050,NA,100,"psycho",49,0,49,"C:/Users/etp-cp-ping/Desktop/LocalPC-EXP/subject-18.csv","psycho",22,50,50,"Lentiform Loewenfeld","3.3.8","['hori', 'vert', 'vert', 'hori', 'vert', 'hori', 'vert', 'hori']","yes",109,"circles","yes",0,NA,2,"legacy",NA,1024,2,48000,-16,"experiment",18,"even","green","no",6,"circle",395329.2634,395478.677300001,395478.7935,NA,402625.275,NA,NA,43797.5895999998,6784.85939999973,NA,43797.6134,581809.478,585698.133800001,NA,NA,NA,NA,6784.92150000056,403837.1034,NA,NA,581809.4927,404333.4633,581809.4252,"New experiment",19,"[0]","dist_present",56,78,"yes","yes",1680,NA,NA,NA,NA,"NR","NR","lp",NA,NA,NA,NA,NA,NA,"practice",1,"NR","in"
"51",2000.49990000029,87282.7957999983,87282.7957999983,23,23,"y",1,"['1', '1', 'space']","n","#000000","no",579381.332,1,"neutral","psycho","psycho","psycho",0,"uniform",0,0,0,0,NA,0,0,NA,0,0,0,0,50,50,NA,NA,NA,NA,0,0,0,NA,50,0,50,73.2296414732588,"Mon Nov  1 11:38:23 2021","The main experiment item","yes","green","no","2","circle",NA,"pinging_target_expectations 5.0.osexp","C:\Users\etp-cp-ping\Desktop\LocalPC-EXP",75,"no","mono","no",18,"no","white","no","yes",1050,NA,100,"psycho",50,0,50,"C:/Users/etp-cp-ping/Desktop/LocalPC-EXP/subject-18.csv","psycho",22,51,51,"Lentiform Loewenfeld","3.3.8","['vert', 'vert', 'vert', 'vert', 'hori', 'hori', 'hori', 'hori']","no",209,"None","yes",0,NA,2,"legacy",NA,1024,2,48000,-16,"experiment",18,"even","red","no",6,"diamond",395329.2634,395478.677300001,395478.7935,NA,402625.275,NA,NA,43797.5895999998,6784.85939999973,NA,43797.6134,585729.3944,589654.7196,NA,NA,NA,NA,6784.92150000056,403837.1034,NA,NA,585729.409,404333.4633,585729.3423,"New experiment",19,"[0]","dist_present",56,73,"yes","yes",1680,NA,NA,NA,NA,"R","NR","lp",NA,NA,NA,NA,NA,NA,"practice",6,"NR","in"
"52",2000.11809999985,89282.9138999981,89282.9138999981,23,23,"y",1,"['1', '1', 'space']","n","#000000","no",591237.5109,1,"neutral","psycho","psycho","psycho",0,"uniform",0,0,0,0,NA,0,0,NA,0,0,0,0,51,51,NA,NA,NA,NA,0,0,0,NA,51,0,51,73.2296414732588,"Mon Nov  1 11:38:23 2021","The main experiment item","yes","green","no","6","diamond",NA,"pinging_target_expectations 5.0.osexp","C:\Users\etp-cp-ping\Desktop\LocalPC-EXP",75,"no","mono","no",18,"no","white","no","yes",1050,NA,100,"psycho",51,0,51,"C:/Users/etp-cp-ping/Desktop/LocalPC-EXP/subject-18.csv","psycho",24,52,52,"Lentiform Loewenfeld","3.3.8","['hori', 'hori', 'hori', 'hori', 'vert', 'vert', 'vert', 'vert']","no",209,"None","yes",0,NA,2,"legacy",NA,1024,2,48000,-16,"experiment",18,"even","red","no",2,"circle",395329.2634,395478.677300001,395478.7935,NA,402625.275,NA,NA,43797.5895999998,6784.85939999973,NA,43797.6134,589686.0855,593631.5216,NA,NA,NA,NA,6784.92150000056,403837.1034,NA,NA,589686.1003,404333.4633,589686.0345,"New experiment",19,"[0]","dist_present",56,37,"yes","yes",1680,NA,NA,NA,NA,"NR","NR","lp",NA,NA,NA,NA,NA,NA,"practice",6,"R","in"
"53",2000.86279999954,91283.7766999977,91283.7766999977,23,23,"y",1,"['1', '1', 'space']","n","#000000","no",594577.5618,1,"neutral","psycho","psycho","psycho",0,"uniform",0,0,0,0,NA,0,0,NA,0,0,0,0,52,52,NA,NA,NA,NA,0,0,0,NA,52,0,52,73.2296414732588,"Mon Nov  1 11:38:23 2021","The main experiment item","yes","red","no","7","circle",NA,"pinging_target_expectations 5.0.osexp","C:\Users\etp-cp-ping\Desktop\LocalPC-EXP",75,"no","mono","no",18,"no","white","no","yes",1050,NA,100,"psycho",52,0,52,"C:/Users/etp-cp-ping/Desktop/LocalPC-EXP/subject-18.csv","psycho",25,53,53,"Lentiform Loewenfeld","3.3.8","['hori', 'vert', 'vert', 'hori', 'hori', 'vert', 'hori', 'vert']","yes",109,"diamond","yes",0,NA,2,"legacy",NA,1024,2,48000,-16,"experiment",18,"even","green","no",3,"diamond",395329.2634,395478.677300001,395478.7935,NA,402625.275,NA,NA,43797.5895999998,6784.85939999973,NA,43797.6134,593662.5024,597787.4313,NA,NA,NA,NA,6784.92150000056,403837.1034,NA,NA,593662.5173,404333.4633,593662.4497,"New experiment",19,"[0]","dist_present",56,48,"yes","yes",1680,NA,NA,NA,NA,"NR","NR","lp",NA,NA,NA,NA,NA,NA,"practice",2,"NR","in"
"54",2000.11550000007,93283.8921999977,93283.8921999977,23,23,"y",1,"['1', '1', 'space']","n","#000000","no",594577.5618,1,"neutral","psycho","psycho","psycho",0,"uniform",0,0,0,0,NA,0,0,NA,0,0,0,0,53,53,NA,NA,NA,NA,0,0,0,NA,53,0,53,73.2296414732588,"Mon Nov  1 11:38:23 2021","The main experiment item","yes","red","no","4","diamond",NA,"pinging_target_expectations 5.0.osexp","C:\Users\etp-cp-ping\Desktop\LocalPC-EXP",75,"no","mono","no",18,"no","white","no","yes",1050,NA,100,"psycho",53,0,53,"C:/Users/etp-cp-ping/Desktop/LocalPC-EXP/subject-18.csv","psycho",25,54,54,"Lentiform Loewenfeld","3.3.8","['vert', 'vert', 'hori', 'hori', 'hori', 'vert', 'hori', 'vert']","no",209,"None","yes",0,NA,2,"legacy",NA,1024,2,48000,-16,"experiment",18,"even","green","no",1,"circle",395329.2634,395478.677300001,395478.7935,NA,402625.275,NA,NA,43797.5895999998,6784.85939999973,NA,43797.6134,597818.497400001,601638.3566,NA,NA,NA,NA,6784.92150000056,403837.1034,NA,NA,597818.5119,404333.4633,597818.4457,"New experiment",19,"[0]","dist_present",56,25,"yes","yes",1680,NA,NA,NA,NA,"NR","NR","lp",NA,"Left",NA,NA,NA,NA,"practice",3,"NR","in"
"55",1531.66940000025,94815.561599998,94815.561599998,24,24,"y",1,"['1', '1', 'space']","n","#000000","no",602380.6518,1,"neutral","psycho","psycho","psycho",0,"uniform",1,0,0,0,NA,0,0,NA,0,0,0,0,54,54,NA,NA,NA,NA,0,0,0,NA,54,0,54,73.2296414732588,"Mon Nov  1 11:38:23 2021","The main experiment item","yes","green","no","5","circle",NA,"pinging_target_expectations 5.0.osexp","C:\Users\etp-cp-ping\Desktop\LocalPC-EXP",75,"no","mono","no",18,"no","white","no","yes",1050,NA,100,"psycho",54,0,54,"C:/Users/etp-cp-ping/Desktop/LocalPC-EXP/subject-18.csv","psycho",26,55,55,"Lentiform Loewenfeld","3.3.8","['hori', 'vert', 'hori', 'hori', 'vert', 'vert', 'hori', 'vert']","no",209,"None","yes",0,NA,2,"legacy",NA,1024,2,48000,-16,"experiment",18,"even","red","no",0,"diamond",395329.2634,395478.677300001,395478.7935,NA,402625.275,NA,NA,43797.5895999998,6784.85939999973,NA,43797.6134,601669.4573,605042.033,NA,NA,NA,NA,6784.92150000056,403837.1034,NA,NA,601669.4721,404333.4633,601669.403800001,"New experiment",19,"[0]","dist_present",56,16,"yes","yes",1680,NA,NA,NA,NA,"NR","NR","lp","Right",NA,NA,NA,NA,NA,"practice",1,"NR","in"
"56",1810.42669999995,96625.9882999979,96625.9882999979,25,25,"y",1,"['1', '1', 'space']","n","#000000","no",602380.6518,1,"neutral","psycho","psycho","psycho",0,"uniform",1,0,0,0,NA,0,0,NA,0,0,0,0,55,55,NA,NA,NA,NA,0,0,0,NA,55,0,55,73.2296414732588,"Mon Nov  1 11:38:23 2021","The main experiment item","yes","red","no","2","diamond",NA,"pinging_target_expectations 5.0.osexp","C:\Users\etp-cp-ping\Desktop\LocalPC-EXP",75,"no","mono","no",18,"no","white","no","yes",1050,NA,100,"psycho",55,0,55,"C:/Users/etp-cp-ping/Desktop/LocalPC-EXP/subject-18.csv","psycho",26,56,56,"Lentiform Loewenfeld","3.3.8","['hori', 'vert', 'vert', 'hori', 'vert', 'hori', 'vert', 'hori']","no",209,"None","yes",0,NA,2,"legacy",NA,1024,2,48000,-16,"experiment",18,"even","green","no",4,"circle",395329.2634,395478.677300001,395478.7935,NA,402625.275,NA,NA,43797.5895999998,6784.85939999973,NA,43797.6134,605073.289200001,608850.0972,NA,NA,NA,NA,6784.92150000056,403837.1034,NA,NA,605073.3063,404333.4633,605073.2379,"New experiment",19,"[0]","dist_present",56,53,"yes","yes",1680,NA,NA,NA,NA,"NR","NR","lp","Left",NA,"Left",NA,NA,NA,"practice",0,"NR","in"
"57",1332.47380000015,1332.47380000015,97958.4620999981,1,26,"y",1,"['1', '1', 'space']","n","#000000","no",602380.6518,2,"bias","psycho","psycho","psycho",0,"uniform",1,0,1,1,NA,1,0,NA,0,0,1,0,56,56,NA,NA,NA,NA,0,1,1,NA,56,1,56,73.2296414732588,"Mon Nov  1 11:38:23 2021","The main experiment item","yes","green","no","5","diamond",NA,"pinging_target_expectations 5.0.osexp","C:\Users\etp-cp-ping\Desktop\LocalPC-EXP",75,"no","mono","no",18,"no","white","no","yes",1050,NA,6,"psycho",0,1,0,"C:/Users/etp-cp-ping/Desktop/LocalPC-EXP/subject-18.csv","psycho",0,57,1,"Lentiform Loewenfeld","3.3.8","['hori', 'hori', 'vert', 'vert', 'vert', 'hori', 'vert', 'hori']","no",206,"None","no",0,NA,2,"legacy",NA,1024,2,48000,-16,"experiment",18,"even","red","no",2,"circle",395329.2634,635992.8381,635992.9807,NA,722389.8056,NA,NA,43797.5895999998,6784.85939999973,609390.1556,43797.6134,723953.0701,727025.8292,NA,NA,NA,NA,6784.92150000056,723421.0699,608881.286,NA,723953.086,723948.6421,723953.0265,"New experiment",19,"[0]","dist_present",56,36,"yes","yes",1680,-37.5047661901981,-11.9140611143526,"more toward","False","NR","NR","lp",NA,NA,NA,NA,4,1,"first",999,"NR","in"
"58",1143.83809999982,2476.31189999997,99102.3001999979,2,27,"y",1,"['1', '1', 'space']","n","#000000","no",727946.3417,2,"bias","psycho","psycho","psycho",0,"uniform",1,0,1,1,NA,1,0,NA,0,0,1,0,57,57,NA,NA,NA,NA,0,1,1,NA,57,1,57,73.2296414732588,"Mon Nov  1 11:38:23 2021","The main experiment item","yes","red","no","3","circle",NA,"pinging_target_expectations 5.0.osexp","C:\Users\etp-cp-ping\Desktop\LocalPC-EXP",75,"no","mono","no",18,"no","white","no","yes",1050,NA,6,"psycho",1,1,1,"C:/Users/etp-cp-ping/Desktop/LocalPC-EXP/subject-18.csv","psycho",1,58,2,"Lentiform Loewenfeld","3.3.8","['vert', 'vert', 'hori', 'hori', 'hori', 'vert', 'hori', 'vert']","no",206,"None","no",0,NA,2,"legacy",NA,1024,2,48000,-16,"experiment",18,"even","green","no",5,"diamond",395329.2634,635992.8381,635992.9807,NA,722389.8056,NA,NA,43797.5895999998,6784.85939999973,609390.1556,43797.6134,727057.9711,730209.8128,NA,NA,NA,NA,6784.92150000056,723421.0699,608881.286,NA,727057.9862,723948.6421,727057.917900001,"New experiment",19,"[0]","dist_present",56,64,"yes","yes",1680,-30.8155161901983,-10.3680611143526,"more away","False","NR","NR","lp",NA,NA,NA,NA,1,3,"first",2,"NR","in"
"59",873.645800000289,3349.95770000026,99975.9459999982,2,27,"y",1,"['1', '1', 'space']","n","#000000","no",727946.3417,2,"bias","psycho","psycho","psycho",0,"uniform",0,0,1,1,NA,1,0,NA,0,0,1,0,58,58,NA,NA,NA,NA,0,1,1,NA,58,1,58,73.2296414732588,"Mon Nov  1 11:38:23 2021","The main experiment item","yes","green","no","0","circle",NA,"pinging_target_expectations 5.0.osexp","C:\Users\etp-cp-ping\Desktop\LocalPC-EXP",75,"no","mono","no",18,"no","white","no","yes",1050,NA,6,"psycho",2,1,2,"C:/Users/etp-cp-ping/Desktop/LocalPC-EXP/subject-18.csv","psycho",1,59,3,"Lentiform Loewenfeld","3.3.8","['hori', 'hori', 'vert', 'vert', 'hori', 'hori', 'vert', 'vert']","yes",106,"circles","no",0,NA,2,"legacy",NA,1024,2,48000,-16,"experiment",18,"even","red","yes",6,"diamond",395329.2634,635992.8381,635992.9807,NA,722389.8056,NA,NA,43797.5895999998,6784.85939999973,609390.1556,43797.6134,730242.8922,733009.7434,NA,NA,NA,NA,6784.92150000056,723421.0699,608881.286,NA,730242.9069,723948.6421,730242.8398,"New experiment",19,"[0]","dist_present",56,71,"yes","yes",1680,-23.7875161901984,-10.5179361143526,"more away","False","NR","NR","lp",NA,"Right",NA,"Right",0,-2,"first",5,"NR","ex"
"60",2000.94029999955,5350.89799999981,101976.886299998,2,27,"y",1,"['1', '1', 'space']","n","#000000","no",727946.3417,2,"bias","psycho","psycho","psycho",0,"uniform",0,0,1,1,NA,1,0,NA,0,0,1,0,59,59,NA,NA,NA,NA,0,1,1,NA,59,1,59,73.2296414732588,"Mon Nov  1 11:38:23 2021","The main experiment item","yes","red","no","1","diamond",NA,"pinging_target_expectations 5.0.osexp","C:\Users\etp-cp-ping\Desktop\LocalPC-EXP",75,"no","mono","no",18,"no","white","no","yes",1050,NA,6,"psycho",3,1,3,"C:/Users/etp-cp-ping/Desktop/LocalPC-EXP/subject-18.csv","psycho",1,60,4,"Lentiform Loewenfeld","3.3.8","['vert', 'vert', 'hori', 'vert', 'hori', 'vert', 'hori', 'hori']","no",206,"None","no",0,NA,2,"legacy",NA,1024,2,48000,-16,"experiment",18,"even","green","yes",6,"circle",395329.2634,635992.8381,635992.9807,NA,722389.8056,NA,NA,43797.5895999998,6784.85939999973,609390.1556,43797.6134,733041.1347,736953.715000001,NA,NA,NA,NA,6784.92150000056,723421.0699,608881.286,NA,733041.1496,723948.6421,733041.0831,"New experiment",19,"[0]","dist_present",56,72,"yes","yes",1680,-15.2206411901982,-35.5064361143526,"more away","False","R","NR","hp",NA,NA,NA,NA,0,-3,"first",6,"NR","ex"
"61",1111.1442000001,6462.04219999991,103088.030499998,3,28,"y",1,"['1', '1', 'space']","n","#000000","no",727946.3417,2,"bias","psycho","psycho","psycho",0,"uniform",1,0,1,1,NA,1,0,NA,0,0,1,0,60,60,NA,NA,NA,NA,0,1,1,NA,60,1,60,73.2296414732588,"Mon Nov  1 11:38:23 2021","The main experiment item","yes","green","yes","6","circle",NA,"pinging_target_expectations 5.0.osexp","C:\Users\etp-cp-ping\Desktop\LocalPC-EXP",75,"no","mono","no",18,"no","white","no","yes",1050,NA,6,"psycho",4,1,4,"C:/Users/etp-cp-ping/Desktop/LocalPC-EXP/subject-18.csv","psycho",1,61,5,"Lentiform Loewenfeld","3.3.8","['hori', 'vert', 'hori', 'hori', 'vert', 'hori', 'vert', 'vert']","yes",106,"diamond","no",0,NA,2,"legacy",NA,1024,2,48000,-16,"experiment",18,"even","red","no",3,"diamond",395329.2634,635992.8381,635992.9807,NA,722389.8056,NA,NA,43797.5895999998,6784.85939999973,609390.1556,43797.6134,736984.7486,739857.8329,NA,NA,NA,NA,6784.92150000056,723421.0699,608881.286,NA,736984.7633,723948.6421,736984.698400001,"New experiment",19,"[0]","dist_present",56,47,"yes","yes",1680,-30.2245161901982,-5.54606111435254,"more away","False","NR","NR","hp",NA,NA,NA,NA,3,0,"first",6,"R","in"
"62",899.654400000232,7361.69660000014,103987.684899998,4,29,"y",1,"['1', '1', 'space']","n","#000000","no",727946.3417,2,"bias","psycho","psycho","psycho",0,"uniform",1,0,1,1,NA,1,0,NA,0,0,1,0,61,61,NA,NA,NA,NA,0,1,1,NA,61,1,61,73.2296414732588,"Mon Nov  1 11:38:23 2021","The main experiment item","yes","red","no","None","circle",NA,"pinging_target_expectations 5.0.osexp","C:\Users\etp-cp-ping\Desktop\LocalPC-EXP",75,"no","mono","no",18,"no","white","no","yes",1050,NA,6,"psycho",5,1,5,"C:/Users/etp-cp-ping/Desktop/LocalPC-EXP/subject-18.csv","psycho",1,62,6,"Lentiform Loewenfeld","3.3.8","['vert', 'vert', 'hori', 'vert', 'hori', 'hori', 'vert', 'hori']","no",206,"None","no",0,NA,2,"legacy",NA,1024,2,48000,-16,"experiment",18,"even","green","no",0,"diamond",395329.2634,635992.8381,635992.9807,NA,722389.8056,NA,NA,43797.5895999998,6784.85939999973,609390.1556,43797.6134,739889.4094,742625.7778,NA,NA,NA,NA,6784.92150000056,723421.0699,608881.286,NA,739889.424,723948.6421,739889.3568,"New experiment",19,"[0]","dist_absent",56,19,"yes","yes",1680,-45.3845161901982,-4.29193611435262,"more toward","False","NR","NR","lp",NA,NA,NA,NA,-2,NA,"first",3,"NR","in"
"63",951.827599999844,8313.52419999999,104939.512499998,5,30,"y",1,"['1', '1', 'space']","n","#000000","no",727946.3417,2,"bias","psycho","psycho","psycho",0,"uniform",1,0,1,1,NA,1,0,NA,0,0,1,0,62,62,NA,NA,NA,NA,0,1,1,NA,62,1,62,73.2296414732588,"Mon Nov  1 11:38:23 2021","The main experiment item","yes","red","no","5","circle",NA,"pinging_target_expectations 5.0.osexp","C:\Users\etp-cp-ping\Desktop\LocalPC-EXP",75,"no","mono","no",18,"no","white","no","yes",1050,NA,6,"psycho",6,1,6,"C:/Users/etp-cp-ping/Desktop/LocalPC-EXP/subject-18.csv","psycho",1,63,7,"Lentiform Loewenfeld","3.3.8","['hori', 'hori', 'hori', 'hori', 'vert', 'vert', 'vert', 'vert']","yes",106,"diamond","no",0,NA,2,"legacy",NA,1024,2,48000,-16,"experiment",18,"even","green","no",3,"diamond",395329.2634,635992.8381,635992.9807,NA,722389.8056,NA,NA,43797.5895999998,6784.85939999973,609390.1556,43797.6134,742657.3042,745361.866400001,NA,NA,NA,NA,6784.92150000056,723421.0699,608881.286,NA,742657.3188,723948.6421,742657.2504,"New experiment",19,"[0]","dist_present",56,46,"yes","yes",1680,-42.8456411901982,11.6625638856474,"more toward","False","NR","NR","lp",NA,NA,NA,NA,3,1,"first",0,"NR","in"
"64",946.108000000124,9259.63220000011,105885.620499998,5,30,"y",1,"['1', '1', 'space']","n","#000000","no",747277.405,2,"bias","psycho","psycho","psycho",0,"uniform",0,0,1,1,NA,1,0,NA,0,0,1,0,63,63,NA,NA,NA,NA,0,1,1,NA,63,1,63,73.2296414732588,"Mon Nov  1 11:38:23 2021","The main experiment item","yes","green","no","7","circle",NA,"pinging_target_expectations 5.0.osexp","C:\Users\etp-cp-ping\Desktop\LocalPC-EXP",75,"no","mono","no",18,"no","white","no","yes",1050,NA,6,"psycho",7,1,7,"C:/Users/etp-cp-ping/Desktop/LocalPC-EXP/subject-18.csv","psycho",2,64,8,"Lentiform Loewenfeld","3.3.8","['vert', 'hori', 'vert', 'hori', 'vert', 'hori', 'vert', 'hori']","yes",106,"diamond","no",0,NA,2,"legacy",NA,1024,2,48000,-16,"experiment",18,"even","red","yes",6,"diamond",395329.2634,635992.8381,635992.9807,NA,722389.8056,NA,NA,43797.5895999998,6784.85939999973,609390.1556,43797.6134,745394.5578,748145.7748,NA,NA,NA,NA,6784.92150000056,723421.0699,608881.286,NA,745394.573,723948.6421,745394.506000001,"New experiment",19,"[0, 82.82928759677468, 112.29932363277642, 212.58478826611415, 278.41626221087967, 351.2873999356031, 437.1433320757857, 540.7813786387463, 640.1819961928907, 813.726242548746, 933.641358372933, 999.0671884114952, 1000.4176897988663, 76.2896054128196, 76.7292211858706, 76.8837820187144, 77.13373940684717, 76.61986419243989, 76.11375595262389]","dist_present",56,78,"yes","yes",1680,NA,NA,"no hp","True","NR","NR","lp",NA,NA,NA,NA,0,-1,"first",3,"NR","ex"
"65",1120.36989999982,10380.0020999999,107005.990399998,6,31,"y",1,"['1', '1', 'space']","n","#000000","no",748603.5838,2,"bias","psycho","psycho","psycho",0,"uniform",1,0,1,1,NA,1,0,NA,0,0,1,0,64,64,NA,NA,NA,NA,0,1,1,NA,64,1,64,73.2296414732588,"Mon Nov  1 11:38:23 2021","The main experiment item","yes","green","no","4","diamond",NA,"pinging_target_expectations 5.0.osexp","C:\Users\etp-cp-ping\Desktop\LocalPC-EXP",75,"no","mono","no",18,"no","white","no","yes",1050,NA,6,"psycho",8,1,8,"C:/Users/etp-cp-ping/Desktop/LocalPC-EXP/subject-18.csv","psycho",3,65,9,"Lentiform Loewenfeld","3.3.8","['hori', 'hori', 'hori', 'vert', 'vert', 'hori', 'vert', 'vert']","no",206,"None","no",0,NA,2,"legacy",NA,1024,2,48000,-16,"experiment",18,"even","red","no",5,"circle",395329.2634,635992.8381,635992.9807,NA,722389.8056,NA,NA,43797.5895999998,6784.85939999973,609390.1556,43797.6134,748178.752700001,751057.8111,NA,NA,NA,NA,6784.92150000056,723421.0699,608881.286,NA,748178.7673,723948.6421,748178.701,"New experiment",19,"[0]","dist_present",56,65,"yes","yes",1680,-47.2110161901984,3.85531388564744,"more toward","False","NR","NR","hp",NA,"Right",NA,NA,1,2,"first",6,"NR","in"
"66",905.381900000153,11285.3840000001,107911.372299998,7,32,"y",1,"['1', '1', 'space']","n","#000000","no",748603.5838,2,"bias","psycho","psycho","psycho",0,"uniform",1,0,1,1,NA,1,0,NA,0,0,1,0,65,65,NA,NA,NA,NA,0,1,1,NA,65,1,65,73.2296414732588,"Mon Nov  1 11:38:23 2021","The main experiment item","yes","red","no","None","circle",NA,"pinging_target_expectations 5.0.osexp","C:\Users\etp-cp-ping\Desktop\LocalPC-EXP",75,"no","mono","no",18,"no","white","no","yes",1050,NA,6,"psycho",9,1,9,"C:/Users/etp-cp-ping/Desktop/LocalPC-EXP/subject-18.csv","psycho",3,66,10,"Lentiform Loewenfeld","3.3.8","['vert', 'hori', 'hori', 'hori', 'vert', 'hori', 'vert', 'vert']","yes",106,"diamond","no",0,NA,2,"legacy",NA,1024,2,48000,-16,"experiment",18,"even","green","no",0,"diamond",395329.2634,635992.8381,635992.9807,NA,722389.8056,NA,NA,43797.5895999998,6784.85939999973,609390.1556,43797.6134,751089.2123,753969.7181,NA,NA,NA,NA,6784.92150000056,723421.0699,608881.286,NA,751089.2268,723948.6421,751089.161,"New experiment",19,"[0, 75.19203257457177, 79.36657274100406, 78.98005528803792, 77.86895758686676, 77.8245085174157, 77.16431437895704, 76.50497271164778, 74.79922651411957, 74.21050414720274]","dist_absent",56,19,"yes","yes",1680,-49.1308911901983,2.66756388564741,"more toward","False","NR","NR","lp",NA,NA,NA,NA,-2,NA,"first",5,"NR","in"
"67",1132.92889999959,12418.3128999997,109044.301199998,8,33,"y",1,"['1', '1', 'space']","n","#000000","no",748603.5838,2,"bias","psycho","psycho","psycho",0,"uniform",1,0,1,1,NA,1,0,NA,0,0,1,0,66,66,NA,NA,NA,NA,0,1,1,NA,66,1,66,73.2296414732588,"Mon Nov  1 11:38:23 2021","The main experiment item","yes","red","no","0","circle",NA,"pinging_target_expectations 5.0.osexp","C:\Users\etp-cp-ping\Desktop\LocalPC-EXP",75,"no","mono","no",18,"no","white","no","yes",1050,NA,6,"psycho",10,1,10,"C:/Users/etp-cp-ping/Desktop/LocalPC-EXP/subject-18.csv","psycho",3,67,11,"Lentiform Loewenfeld","3.3.8","['vert', 'hori', 'hori', 'hori', 'vert', 'hori', 'vert', 'vert']","no",206,"None","no",0,NA,2,"legacy",NA,1024,2,48000,-16,"experiment",18,"even","green","no",4,"diamond",395329.2634,635992.8381,635992.9807,NA,722389.8056,NA,NA,43797.5895999998,6784.85939999973,609390.1556,43797.6134,754001.409,757137.7828,NA,NA,NA,NA,6784.92150000056,723421.0699,608881.286,NA,754001.4238,723948.6421,754001.3548,"New experiment",19,"[0]","dist_present",56,51,"yes","yes",1680,-48.6240161901983,-1.22893611435259,"more toward","False","NR","NR","lp",NA,NA,NA,NA,2,-2,"first",0,"NR","in"
"68",1956.59369999974,14374.9065999994,111000.894899997,8,33,"y",1,"['1', '1', 'space']","n","#000000","no",758362.7771,2,"bias","psycho","psycho","psycho",0,"uniform",0,0,1,1,NA,1,0,NA,0,0,1,0,67,67,NA,NA,NA,NA,0,1,1,NA,67,1,67,73.2296414732588,"Mon Nov  1 11:38:23 2021","The main experiment item","yes","green","no","4","diamond",NA,"pinging_target_expectations 5.0.osexp","C:\Users\etp-cp-ping\Desktop\LocalPC-EXP",75,"no","mono","no",18,"no","white","no","yes",1050,NA,6,"psycho",11,1,11,"C:/Users/etp-cp-ping/Desktop/LocalPC-EXP/subject-18.csv","psycho",4,68,12,"Lentiform Loewenfeld","3.3.8","['vert', 'vert', 'vert', 'hori', 'vert', 'hori', 'hori', 'hori']","no",206,"None","no",0,NA,2,"legacy",NA,1024,2,48000,-16,"experiment",18,"even","red","no",1,"circle",395329.2634,635992.8381,635992.9807,NA,722389.8056,NA,NA,43797.5895999998,6784.85939999973,609390.1556,43797.6134,757169.3143,760929.7803,NA,NA,NA,NA,6784.92150000056,723421.0699,608881.286,NA,757169.3293,723948.6421,757169.2626,"New experiment",19,"[0]","dist_present",56,25,"yes","yes",1680,NA,NA,"no hp","True","NR","NR","lp",NA,"Left",NA,NA,-3,2,"first",4,"NR","in"
"69",1693.76000000013,16068.6665999995,112694.654899997,9,34,"y",1,"['1', '1', 'space']","n","#000000","no",758362.7771,2,"bias","psycho","psycho","psycho",0,"uniform",1,0,1,1,NA,1,0,NA,0,0,1,0,68,68,NA,NA,NA,NA,0,1,1,NA,68,1,68,73.2296414732588,"Mon Nov  1 11:38:23 2021","The main experiment item","yes","green","no","3","circle",NA,"pinging_target_expectations 5.0.osexp","C:\Users\etp-cp-ping\Desktop\LocalPC-EXP",75,"no","mono","no",18,"no","white","no","yes",1050,NA,6,"psycho",12,1,12,"C:/Users/etp-cp-ping/Desktop/LocalPC-EXP/subject-18.csv","psycho",4,69,13,"Lentiform Loewenfeld","3.3.8","['hori', 'vert', 'hori', 'vert', 'vert', 'vert', 'hori', 'hori']","no",206,"None","no",0,NA,2,"legacy",NA,1024,2,48000,-16,"experiment",18,"even","red","yes",6,"diamond",395329.2634,635992.8381,635992.9807,NA,722389.8056,NA,NA,43797.5895999998,6784.85939999973,609390.1556,43797.6134,760961.3886,764465.9612,NA,NA,NA,NA,6784.92150000056,723421.0699,608881.286,NA,760961.4031,723948.6421,760961.3369,"New experiment",19,"[0, 78.14863305046894, 83.02196541110914, 84.12611484101078, 85.90838143045183, 87.85543353799318, 88.46248741522079, 88.47428846415791, 85.02029076231943, 81.30444981408402, 79.31913462203615, 73.96923403015985, 74.81827329306577, 74.960921801719, 74.17553337170659]","dist_present",56,74,"yes","yes",1680,-13.3753911901983,6.03568888564735,"more away","False","NR","NR","lp",NA,NA,NA,NA,0,3,"first",1,"NR","ex"
"70",1935.26239999931,18003.9289999988,114629.917299997,10,35,"y",1,"['1', '1', 'space']","n","#000000","no",765378.8285,2,"bias","psycho","psycho","psycho",0,"uniform",1,0,1,1,NA,1,0,NA,0,0,1,0,69,69,NA,NA,NA,NA,0,1,1,NA,69,1,69,73.2296414732588,"Mon Nov  1 11:38:23 2021","The main experiment item","yes","red","no","5","diamond",NA,"pinging_target_expectations 5.0.osexp","C:\Users\etp-cp-ping\Desktop\LocalPC-EXP",75,"no","mono","no",18,"no","white","no","yes",1050,NA,6,"psycho",13,1,13,"C:/Users/etp-cp-ping/Desktop/LocalPC-EXP/subject-18.csv","psycho",5,70,14,"Lentiform Loewenfeld","3.3.8","['vert', 'vert', 'vert', 'hori', 'hori', 'hori', 'vert', 'hori']","no",206,"None","no",0,NA,2,"legacy",NA,1024,2,48000,-16,"experiment",18,"even","green","no",0,"circle",395329.2634,635992.8381,635992.9807,NA,722389.8056,NA,NA,43797.5895999998,6784.85939999973,609390.1556,43797.6134,764498.512900001,768417.8217,NA,NA,NA,NA,6784.92150000056,723421.0699,608881.286,NA,764498.527100001,723948.6421,764498.4598,"New experiment",19,"[0]","dist_present",56,16,"yes","yes",1680,-40.7543911901982,11.7226888856475,"more toward","False","NR","NR","hp","Right",NA,NA,NA,-2,1,"first",6,"NR","in"
"71",941.104300000006,18945.0332999988,115571.021599997,11,36,"y",1,"['1', '1', 'space']","n","#000000","no",769365.8948,2,"bias","psycho","psycho","psycho",0,"uniform",1,0,1,1,NA,1,0,NA,0,0,1,0,70,70,NA,NA,NA,NA,0,1,1,NA,70,1,70,73.2296414732588,"Mon Nov  1 11:38:23 2021","The main experiment item","yes","red","no","None","diamond",NA,"pinging_target_expectations 5.0.osexp","C:\Users\etp-cp-ping\Desktop\LocalPC-EXP",75,"no","mono","no",18,"no","white","no","yes",1050,NA,6,"psycho",14,1,14,"C:/Users/etp-cp-ping/Desktop/LocalPC-EXP/subject-18.csv","psycho",6,71,15,"Lentiform Loewenfeld","3.3.8","['vert', 'hori', 'vert', 'hori', 'vert', 'hori', 'hori', 'vert']","no",206,"None","no",0,NA,2,"legacy",NA,1024,2,48000,-16,"experiment",18,"even","green","no",0,"circle",395329.2634,635992.8381,635992.9807,NA,722389.8056,NA,NA,43797.5895999998,6784.85939999973,609390.1556,43797.6134,768449.4879,771249.7303,NA,NA,NA,NA,6784.92150000056,723421.0699,608881.286,NA,768449.502500001,723948.6421,768449.4365,"New experiment",19,"[0, 96.24807140925031, 130.62130673793644, 170.98435986475522, 215.10008773057245, 266.0877865964209, 324.51677675959786, 390.07613073418815, 453.70950810149384, 525.1536852762065, 606.6529741096602, 698.3083205779388, 854.6349484829515, 954.8813771491577, 1046.0533306978489, 1099.9806588920208, 1102.3552970138508]","dist_absent",56,19,"yes","no",1680,NA,NA,"no hp","True","R","NR","lp",NA,NA,NA,NA,-2,NA,"first",0,"NR","in"
"72",1571.94230000011,20516.975599999,117142.963899997,11,36,"y",1,"['1', '1', 'space']","n","#000000","no",769365.8948,2,"bias","psycho","psycho","psycho",0,"uniform",0,0,1,1,NA,1,0,NA,0,0,1,0,71,71,NA,NA,NA,NA,0,1,1,NA,71,1,71,73.2296414732588,"Mon Nov  1 11:38:23 2021","The main experiment item","yes","red","no","2","diamond",NA,"pinging_target_expectations 5.0.osexp","C:\Users\etp-cp-ping\Desktop\LocalPC-EXP",75,"no","mono","no",18,"no","white","no","yes",1050,NA,6,"psycho",15,1,15,"C:/Users/etp-cp-ping/Desktop/LocalPC-EXP/subject-18.csv","psycho",6,72,16,"Lentiform Loewenfeld","3.3.8","['hori', 'hori', 'hori', 'vert', 'vert', 'vert', 'vert', 'hori']","yes",106,"circles","no",0,NA,2,"legacy",NA,1024,2,48000,-16,"experiment",18,"even","green","no",7,"circle",395329.2634,635992.8381,635992.9807,NA,722389.8056,NA,NA,43797.5895999998,6784.85939999973,609390.1556,43797.6134,771281.3863,774577.7655,NA,NA,NA,NA,6784.92150000056,723421.0699,608881.286,NA,771281.4006,723948.6421,771281.336,"New experiment",19,"[0]","dist_present",56,83,"yes","yes",1680,-18.7276411901982,-15.3096861143526,"more away","False","NR","NR","lp",NA,NA,NA,NA,-1,4,"first",0,"R","in"
"73",738.906000000541,21255.8815999995,117881.869899997,12,37,"y",1,"['1', '1', 'space']","n","#000000","no",769365.8948,2,"bias","psycho","psycho","psycho",0,"uniform",1,0,1,1,NA,1,0,NA,0,0,1,0,72,72,NA,NA,NA,NA,0,1,1,NA,72,1,72,73.2296414732588,"Mon Nov  1 11:38:23 2021","The main experiment item","yes","green","no","None","circle",NA,"pinging_target_expectations 5.0.osexp","C:\Users\etp-cp-ping\Desktop\LocalPC-EXP",75,"no","mono","no",18,"no","white","no","yes",1050,NA,6,"psycho",16,1,16,"C:/Users/etp-cp-ping/Desktop/LocalPC-EXP/subject-18.csv","psycho",6,73,17,"Lentiform Loewenfeld","3.3.8","['hori', 'vert', 'vert', 'hori', 'vert', 'hori', 'hori', 'vert']","yes",106,"diamond","no",0,NA,2,"legacy",NA,1024,2,48000,-16,"experiment",18,"even","red","yes",6,"diamond",395329.2634,635992.8381,635992.9807,NA,722389.8056,NA,NA,43797.5895999998,6784.85939999973,609390.1556,43797.6134,774609.3389,777089.6917,NA,NA,NA,NA,6784.92150000056,723421.0699,608881.286,NA,774609.3537,723948.6421,774609.2871,"New experiment",19,"[0]","dist_absent",56,79,"yes","yes",1680,-23.9043911901982,-11.6491861143526,"more away","False","NR","NR","lp",NA,"Right",NA,"Right",0,NA,"first",7,"NR","ex"
"74",2000.60889999988,23256.4904999994,119882.478799997,12,37,"y",1,"['1', '1', 'space']","n","#000000","no",779553.09,2,"bias","psycho","psycho","psycho",0,"uniform",0,0,1,1,NA,1,0,NA,0,0,1,0,73,73,NA,NA,NA,NA,0,1,1,NA,73,1,73,73.2296414732588,"Mon Nov  1 11:38:23 2021","The main experiment item","yes","green","yes","6","diamond",NA,"pinging_target_expectations 5.0.osexp","C:\Users\etp-cp-ping\Desktop\LocalPC-EXP",75,"no","mono","no",18,"no","white","no","yes",1050,NA,6,"psycho",17,1,17,"C:/Users/etp-cp-ping/Desktop/LocalPC-EXP/subject-18.csv","psycho",7,74,18,"Lentiform Loewenfeld","3.3.8","['vert', 'vert', 'vert', 'vert', 'hori', 'hori', 'hori', 'hori']","no",206,"None","no",0,NA,2,"legacy",NA,1024,2,48000,-16,"experiment",18,"even","red","no",1,"circle",395329.2634,635992.8381,635992.9807,NA,722389.8056,NA,NA,43797.5895999998,6784.85939999973,609390.1556,43797.6134,777121.3143,780941.392,NA,NA,NA,NA,6784.92150000056,723421.0699,608881.286,NA,777121.3291,723948.6421,777121.2628,"New experiment",19,"[0]","dist_present",56,27,"yes","yes",1680,-22.4736411901983,-3.78481111435254,"more away","False","NR","NR","hp",NA,NA,NA,NA,-3,0,"first",6,"NR","in"
"75",1109.91439999989,24366.4048999993,120992.393199997,13,38,"y",1,"['1', '1', 'space']","n","#000000","no",781876.063700001,2,"bias","psycho","psycho","psycho",0,"uniform",1,0,1,1,NA,1,0,NA,0,0,1,0,74,74,NA,NA,NA,NA,0,1,1,NA,74,1,74,73.2296414732588,"Mon Nov  1 11:38:23 2021","The main experiment item","yes","green","no","1","diamond",NA,"pinging_target_expectations 5.0.osexp","C:\Users\etp-cp-ping\Desktop\LocalPC-EXP",75,"no","mono","no",18,"no","white","no","yes",1050,NA,6,"psycho",18,1,18,"C:/Users/etp-cp-ping/Desktop/LocalPC-EXP/subject-18.csv","psycho",8,75,19,"Lentiform Loewenfeld","3.3.8","['vert', 'vert', 'hori', 'vert', 'hori', 'hori', 'hori', 'vert']","yes",106,"diamond","no",0,NA,2,"legacy",NA,1024,2,48000,-16,"experiment",18,"even","red","yes",6,"circle",395329.2634,635992.8381,635992.9807,NA,722389.8056,NA,NA,43797.5895999998,6784.85939999973,609390.1556,43797.6134,780972.6899,784097.6951,NA,NA,NA,NA,6784.92150000056,723421.0699,608881.286,NA,780972.7044,723948.6421,780972.6378,"New experiment",19,"[0]","dist_present",56,72,"yes","yes",1680,-50.9288911901982,3.92031388564744,"more toward","False","NR","NR","lp",NA,NA,NA,NA,0,-3,"first",1,"NR","ex"
"76",1373.74679999996,25740.1516999992,122366.139999997,14,39,"y",1,"['1', '1', 'space']","n","#000000","no",784930.0923,2,"bias","psycho","psycho","psycho",0,"uniform",1,0,1,1,NA,1,0,NA,0,0,1,0,75,75,NA,NA,NA,NA,0,1,1,NA,75,1,75,73.2296414732588,"Mon Nov  1 11:38:23 2021","The main experiment item","yes","red","no","4","diamond",NA,"pinging_target_expectations 5.0.osexp","C:\Users\etp-cp-ping\Desktop\LocalPC-EXP",75,"no","mono","no",18,"no","white","no","yes",1050,NA,6,"psycho",19,1,19,"C:/Users/etp-cp-ping/Desktop/LocalPC-EXP/subject-18.csv","psycho",9,76,20,"Lentiform Loewenfeld","3.3.8","['vert', 'vert', 'hori', 'vert', 'hori', 'hori', 'vert', 'hori']","yes",106,"circles","no",0,NA,2,"legacy",NA,1024,2,48000,-16,"experiment",18,"even","green","yes",6,"circle",395329.2634,635992.8381,635992.9807,NA,722389.8056,NA,NA,43797.5895999998,6784.85939999973,609390.1556,43797.6134,784129.201100001,787377.6949,NA,NA,NA,NA,6784.92150000056,723421.0699,608881.286,NA,784129.216,723948.6421,784129.1486,"New experiment",19,"[0]","dist_present",56,75,"yes","yes",1680,-35.1525161901982,-2.90756111435263,"more toward","False","R","NR","hp",NA,"Right",NA,"Right",0,2,"first",6,"NR","ex"
"77",1077.19220000028,26817.3438999995,123443.332199997,15,40,"y",1,"['1', '1', 'space']","n","#000000","no",784930.0923,2,"bias","psycho","psycho","psycho",0,"uniform",1,0,1,1,NA,1,0,NA,0,0,1,0,76,76,NA,NA,NA,NA,0,1,1,NA,76,1,76,73.2296414732588,"Mon Nov  1 11:38:23 2021","The main experiment item","yes","red","no","None","circle",NA,"pinging_target_expectations 5.0.osexp","C:\Users\etp-cp-ping\Desktop\LocalPC-EXP",75,"no","mono","no",18,"no","white","no","yes",1050,NA,6,"psycho",20,1,20,"C:/Users/etp-cp-ping/Desktop/LocalPC-EXP/subject-18.csv","psycho",9,77,21,"Lentiform Loewenfeld","3.3.8","['hori', 'vert', 'hori', 'vert', 'vert', 'hori', 'vert', 'hori']","yes",106,"diamond","no",0,NA,2,"legacy",NA,1024,2,48000,-16,"experiment",18,"even","green","no",2,"diamond",395329.2634,635992.8381,635992.9807,NA,722389.8056,NA,NA,43797.5895999998,6784.85939999973,609390.1556,43797.6134,787410.7794,790177.6935,NA,NA,NA,NA,6784.92150000056,723421.0699,608881.286,NA,787410.7941,723948.6421,787410.726900001,"New experiment",19,"[0]","dist_absent",56,39,"yes","yes",1680,-39.5042661901982,-7.25368611435258,"more toward","False","NR","NR","hp",NA,"Left",NA,"Left",4,NA,"first",6,"R","in"
"78",704.164099999587,27521.5079999991,124147.496299997,16,41,"y",1,"['1', '1', 'space']","n","#000000","no",784930.0923,2,"bias","psycho","psycho","psycho",0,"uniform",1,0,1,1,NA,1,0,NA,0,0,1,0,77,77,NA,NA,NA,NA,0,1,1,NA,77,1,77,73.2296414732588,"Mon Nov  1 11:38:23 2021","The main experiment item","yes","red","no","None","diamond",NA,"pinging_target_expectations 5.0.osexp","C:\Users\etp-cp-ping\Desktop\LocalPC-EXP",75,"no","mono","no",18,"no","white","no","yes",1050,NA,6,"psycho",21,1,21,"C:/Users/etp-cp-ping/Desktop/LocalPC-EXP/subject-18.csv","psycho",9,78,22,"Lentiform Loewenfeld","3.3.8","['vert', 'hori', 'vert', 'vert', 'hori', 'hori', 'vert', 'hori']","yes",106,"circles","no",0,NA,2,"legacy",NA,1024,2,48000,-16,"experiment",18,"even","green","yes",6,"circle",395329.2634,635992.8381,635992.9807,NA,722389.8056,NA,NA,43797.5895999998,6784.85939999973,609390.1556,43797.6134,790209.4553,792833.6901,NA,NA,NA,NA,6784.92150000056,723421.0699,608881.286,NA,790209.47,723948.6421,790209.4032,"New experiment",19,"[0]","dist_absent",56,79,"yes","yes",1680,-19.8186411901983,-7.11593611435264,"more away","False","NR","R","lp",NA,"Right",NA,"Right",0,NA,"first",2,"NR","ex"
"79",696.382400000468,28217.8903999996,124843.878699997,16,41,"y",1,"['1', '1', 'space']","n","#000000","no",794203.2152,2,"bias","psycho","psycho","psycho",0,"uniform",0,0,1,1,NA,1,0,NA,0,0,1,0,78,78,NA,NA,NA,NA,0,1,1,NA,78,1,78,73.2296414732588,"Mon Nov  1 11:38:23 2021","The main experiment item","yes","green","no","0","diamond",NA,"pinging_target_expectations 5.0.osexp","C:\Users\etp-cp-ping\Desktop\LocalPC-EXP",75,"no","mono","no",18,"no","white","no","yes",1050,NA,6,"psycho",22,1,22,"C:/Users/etp-cp-ping/Desktop/LocalPC-EXP/subject-18.csv","psycho",10,79,23,"Lentiform Loewenfeld","3.3.8","['hori', 'vert', 'vert', 'hori', 'hori', 'vert', 'vert', 'hori']","yes",106,"circles","no",0,NA,2,"legacy",NA,1024,2,48000,-16,"experiment",18,"even","red","no",1,"circle",395329.2634,635992.8381,635992.9807,NA,722389.8056,NA,NA,43797.5895999998,6784.85939999973,609390.1556,43797.6134,792865.3924,795345.6327,NA,NA,NA,NA,6784.92150000056,723421.0699,608881.286,NA,792865.4073,723948.6421,792865.3371,"New experiment",19,"[0, 82.86160476622655, 124.87550329525138, 178.03959921646899, 234.8677468975159, 307.34426950896614, 384.73386683022073, 478.3429214823062, 582.3942170558181, 695.3421777584936, 877.1619244565459, 986.402018030335, 1023.0222069334108]","dist_present",56,21,"yes","no",1680,NA,NA,"no hp","True","NR","NR","hp",NA,"Left",NA,NA,-3,-2,"first",6,"NR","in"
"80",2000.82160000049,30218.7120000001,126844.700299998,16,41,"y",1,"['1', '1', 'space']","n","#000000","no",794203.2152,2,"bias","psycho","psycho","psycho",0,"uniform",0,0,1,1,NA,1,0,NA,0,0,1,0,79,79,NA,NA,NA,NA,0,1,1,NA,79,1,79,73.2296414732588,"Mon Nov  1 11:38:23 2021","The main experiment item","yes","green","yes","6","circle",NA,"pinging_target_expectations 5.0.osexp","C:\Users\etp-cp-ping\Desktop\LocalPC-EXP",75,"no","mono","no",18,"no","white","no","yes",1050,NA,6,"psycho",23,1,23,"C:/Users/etp-cp-ping/Desktop/LocalPC-EXP/subject-18.csv","psycho",10,80,24,"Lentiform Loewenfeld","3.3.8","['vert', 'hori', 'hori', 'vert', 'vert', 'vert', 'hori', 'hori']","no",206,"None","no",0,NA,2,"legacy",NA,1024,2,48000,-16,"experiment",18,"even","red","no",1,"diamond",395329.2634,635992.8381,635992.9807,NA,722389.8056,NA,NA,43797.5895999998,6784.85939999973,609390.1556,43797.6134,795377.0384,799345.5993,NA,NA,NA,NA,6784.92150000056,723421.0699,608881.286,NA,795377.0532,723948.6421,795376.9861,"New experiment",19,"[0, 76.13475465712071, 82.51304687910987, 87.50831161696314, 88.5090607396133, 88.92074388942325, 88.9508291136176, 88.3973536306738, 85.60288413349986, 82.79224610810843, 79.86645890062339, 77.8067500071802, 74.35388355694677, 73.5869578872092, 74.606707151259, 76.64265104674682, 76.99690201510101, 76.93668376077964, 77.56420749405156, 78.14617350577662, 77.85092766613481, 77.8067500071802, 78.90656412376065, 78.8885071326485, 78.94359939074081, 79.46172270960248, 79.65706036269319, 79.7847320406456, 79.5463100917946, 79.29014899122765, 79.20166320596171, 78.17542716295269, 78.25112219642699, 78.31504237256819, 78.70635045567117, 79.11842124359735, 76.74402874013306, 76.72350823775813, 76.23415730972174, 76.33205229149513, 76.42989308594645, 76.45973070788324, 77.67401558922167, 77.3816808505165, 76.81962015350042, 76.81880324969364, 76.8581447159693, 74.54371682291291, 74.56337431709704, 75.75967149286835, 75.72085230070563, 75.60351719016508, 75.62275516425964, 75.6616246864658, 75.44037380607283, 78.9415027068143, 78.84577500000972, 78.78025440354338, 78.60340871627102, 78.50534775711138, 77.46612162745726, 74.6614502001963, 73.28934851639309, 76.132661733434, 74.04112521198202]","dist_present",56,27,"yes","yes",1680,-36.2901411901982,-5.0445611143526,"more toward","False","R","NR","lp",NA,NA,NA,NA,-3,0,"first",1,"NR","in"
