"","RT","RT_bl","RT_tot","acc_bl","acc_tot","answer_debrief_1","answer_debrief_2","answer_debrief_3","answer_debrief_4","background","bidi","blink_onset","block_cnt","block_type","canvas_backend","clock_backend","color_backend","compensation","coordinates","correct","count_block_loop","count_block_seq","count_block_settings","count_check_session","count_drift_correct","count_end_loop","count_end_seq","count_exp_settings","count_experiment","count_feedback","count_instructions","count_log_variables","count_logger","count_new_inline_script","count_new_pygaze_drift_correct","count_new_pygaze_start_recording","count_new_pygaze_stop_recording","count_pygaze","count_start_recording","count_stop_recording","count_test_location","count_trial","count_trial_loop","count_trial_seq","d_eye","datetime","description","disable_garbage_collection","dist_color","dist_high","dist_loc","dist_shape","empty_column","experiment_file","experiment_path","eye_threshold_length","font_bold","font_family","font_italic","font_size","font_underline","foreground","form_clicks","fullscreen","height","high_loc","high_prob_loc","keyboard_backend","live_row","live_row_block_loop","live_row_trial_loop","logfile","mouse_backend","nr_blinks","nr_trials","nr_trials_bl","opensesame_codename","opensesame_version","orient_list_trial","ping","ping_trigger","ping_type","practice","repeat_cycle","response","round_decimals","sampler_backend","session_nr","sound_buf_size","sound_channels","sound_freq","sound_sample_size","start","subject_nr","subject_parity","target_color","target_high","target_loc","target_shape","time_block_loop","time_block_seq","time_block_settings","time_check_session","time_drift_correct","time_end_loop","time_end_seq","time_exp_settings","time_experiment","time_feedback","time_instructions","time_log_variables","time_logger","time_new_inline_script","time_new_pygaze_drift_correct","time_new_pygaze_start_recording","time_new_pygaze_stop_recording","time_pygaze","time_start_recording","time_stop_recording","time_test_location","time_trial","time_trial_loop","time_trial_seq","title","total_blocks","tracker_dev","trial_type","trials_in_block","trigger","uniform_coordinates","update_blinks","width","x","y","toward","containsNaN","rept","repd","prevtar","pd","nt","pd_c","nt_c","tar_dist","dist_dist","prevHP","eegTar","repteeg","tarcounter"
"1",2000.40689999878,2000.40689999878,2000.40689999878,0,0,"y",5,"['5', '7', '7', 'space']","n","#000000","no",404298.395900001,1,"neutral","psycho","psycho","psycho",0,"uniform",0,0,0,0,NA,0,0,NA,0,0,0,0,0,0,NA,NA,NA,NA,0,0,0,NA,0,0,0,73.2296414732588,"Mon Aug  9 14:56:58 2021","The main experiment item","yes","green","no","3","circle",NA,"pinging_target_expectations 3.2.osexp","C:\Users\etp-cp-ping\Desktop\LocalPC-EXP",75,"no","mono","no",18,"no","white","no","yes",1050,NA,100,"psycho",0,0,0,"C:/Users/etp-cp-ping/Desktop/LocalPC-EXP/subject-7.csv","psycho",1,1,1,"Lentiform Loewenfeld","3.3.8","['vert', 'hori', 'vert', 'vert', 'hori', 'hori', 'hori', 'vert']","no",209,"None","yes",0,NA,2,"legacy",NA,1024,2,48000,-16,"experiment",7,"odd","red","no",6,"diamond",382833.097300001,382859.7309,382859.7697,NA,387473.138000001,NA,NA,97348.6617999988,3986.55099999814,NA,97348.6836999982,402800.4836,406529.763300001,NA,NA,NA,NA,3986.6331000012,402289.493799999,NA,NA,402800.498699999,402796.186200001,402800.440499999,"New experiment",19,"[0]","dist_present",56,74,"yes","yes",1680,NA,NA,NA,NA,"NR","NR","lp",NA,NA,NA,NA,NA,NA,"practice",999,"NR","in"
"2",1812.00230000098,3812.40919999976,3812.40919999976,1,1,"y",5,"['5', '7', '7', 'space']","n","#000000","no",408594.106299999,1,"neutral","psycho","psycho","psycho",0,"uniform",1,0,0,0,NA,0,0,NA,0,0,0,0,1,1,NA,NA,NA,NA,0,0,0,NA,1,0,1,73.2296414732588,"Mon Aug  9 14:56:58 2021","The main experiment item","yes","green","no","1","circle",NA,"pinging_target_expectations 3.2.osexp","C:\Users\etp-cp-ping\Desktop\LocalPC-EXP",75,"no","mono","no",18,"no","white","no","yes",1050,NA,100,"psycho",1,0,1,"C:/Users/etp-cp-ping/Desktop/LocalPC-EXP/subject-7.csv","psycho",3,2,2,"Lentiform Loewenfeld","3.3.8","['vert', 'vert', 'hori', 'vert', 'vert', 'hori', 'hori', 'hori']","no",209,"None","yes",0,NA,2,"legacy",NA,1024,2,48000,-16,"experiment",7,"odd","red","no",5,"diamond",382833.097300001,382859.7309,382859.7697,NA,387473.138000001,NA,NA,97348.6617999988,3986.55099999814,NA,97348.6836999982,406571.420699998,410386.362400001,NA,NA,NA,NA,3986.6331000012,402289.493799999,NA,NA,406571.4352,402796.186200001,406571.372499999,"New experiment",19,"[0]","dist_present",56,62,"yes","yes",1680,NA,NA,NA,NA,"NR","NR","lp",NA,NA,NA,NA,NA,NA,"practice",6,"NR","in"
"3",2000.70680000138,5813.11600000114,5813.11600000114,1,1,"y",5,"['5', '7', '7', 'space']","n","#000000","no",408594.106299999,1,"neutral","psycho","psycho","psycho",0,"uniform",0,0,0,0,NA,0,0,NA,0,0,0,0,2,2,NA,NA,NA,NA,0,0,0,NA,2,0,2,73.2296414732588,"Mon Aug  9 14:56:58 2021","The main experiment item","yes","green","no","3","diamond",NA,"pinging_target_expectations 3.2.osexp","C:\Users\etp-cp-ping\Desktop\LocalPC-EXP",75,"no","mono","no",18,"no","white","no","yes",1050,NA,100,"psycho",2,0,2,"C:/Users/etp-cp-ping/Desktop/LocalPC-EXP/subject-7.csv","psycho",3,3,3,"Lentiform Loewenfeld","3.3.8","['vert', 'hori', 'vert', 'vert', 'hori', 'hori', 'hori', 'vert']","no",209,"None","yes",0,NA,2,"legacy",NA,1024,2,48000,-16,"experiment",7,"odd","red","no",4,"circle",382833.097300001,382859.7309,382859.7697,NA,387473.138000001,NA,NA,97348.6617999988,3986.55099999814,NA,97348.6836999982,410417.802700002,414434.400999999,NA,NA,NA,NA,3986.6331000012,402289.493799999,NA,NA,410417.817500002,402796.186200001,410417.753000002,"New experiment",19,"[0]","dist_present",56,54,"yes","yes",1680,NA,NA,NA,NA,"NR","NR","lp","Left",NA,NA,NA,NA,NA,"practice",5,"NR","in"
"4",1364.40450000006,7177.52050000121,7177.52050000121,1,1,"y",5,"['5', '7', '7', 'space']","n","#000000","no",415152.557199999,1,"neutral","psycho","psycho","psycho",0,"uniform",0,0,0,0,NA,0,0,NA,0,0,0,0,3,3,NA,NA,NA,NA,0,0,0,NA,3,0,3,73.2296414732588,"Mon Aug  9 14:56:58 2021","The main experiment item","yes","red","no","1","circle",NA,"pinging_target_expectations 3.2.osexp","C:\Users\etp-cp-ping\Desktop\LocalPC-EXP",75,"no","mono","no",18,"no","white","no","yes",1050,NA,100,"psycho",3,0,3,"C:/Users/etp-cp-ping/Desktop/LocalPC-EXP/subject-7.csv","psycho",4,4,4,"Lentiform Loewenfeld","3.3.8","['hori', 'vert', 'hori', 'hori', 'vert', 'vert', 'vert', 'hori']","no",209,"None","yes",0,NA,2,"legacy",NA,1024,2,48000,-16,"experiment",7,"odd","green","no",0,"diamond",382833.097300001,382859.7309,382859.7697,NA,387473.138000001,NA,NA,97348.6617999988,3986.55099999814,NA,97348.6836999982,414466.076199998,417762.224300001,NA,NA,NA,NA,3986.6331000012,402289.493799999,NA,NA,414466.090900001,402796.186200001,414466.0263,"New experiment",19,"[0]","dist_present",56,12,"yes","yes",1680,NA,NA,NA,NA,"NR","NR","lp","Left",NA,NA,NA,NA,NA,"practice",4,"NR","in"
"5",1876.12179999996,9053.64230000117,9053.64230000117,2,2,"y",5,"['5', '7', '7', 'space']","n","#000000","no",418112.6066,1,"neutral","psycho","psycho","psycho",0,"uniform",1,0,0,0,NA,0,0,NA,0,0,0,0,4,4,NA,NA,NA,NA,0,0,0,NA,4,0,4,73.2296414732588,"Mon Aug  9 14:56:58 2021","The main experiment item","yes","red","no","2","diamond",NA,"pinging_target_expectations 3.2.osexp","C:\Users\etp-cp-ping\Desktop\LocalPC-EXP",75,"no","mono","no",18,"no","white","no","yes",1050,NA,100,"psycho",4,0,4,"C:/Users/etp-cp-ping/Desktop/LocalPC-EXP/subject-7.csv","psycho",5,5,5,"Lentiform Loewenfeld","3.3.8","['hori', 'hori', 'vert', 'hori', 'vert', 'vert', 'vert', 'hori']","yes",109,"circles","yes",0,NA,2,"legacy",NA,1024,2,48000,-16,"experiment",7,"odd","green","no",3,"circle",382833.097300001,382859.7309,382859.7697,NA,387473.138000001,NA,NA,97348.6617999988,3986.55099999814,NA,97348.6836999982,417792.543399999,421506.243,NA,NA,NA,NA,3986.6331000012,402289.493799999,NA,NA,417792.558000001,402796.186200001,417792.494699999,"New experiment",19,"[0]","dist_present",56,43,"yes","yes",1680,NA,NA,NA,NA,"NR","NR","lp",NA,NA,NA,NA,NA,NA,"practice",0,"NR","in"
"6",970.156399998814,10023.7987,10023.7987,3,3,"y",5,"['5', '7', '7', 'space']","n","#000000","no",421910.6803,1,"neutral","psycho","psycho","psycho",0,"uniform",1,0,0,0,NA,0,0,NA,0,0,0,0,5,5,NA,NA,NA,NA,0,0,0,NA,5,0,5,73.2296414732588,"Mon Aug  9 14:56:58 2021","The main experiment item","yes","red","no","4","diamond",NA,"pinging_target_expectations 3.2.osexp","C:\Users\etp-cp-ping\Desktop\LocalPC-EXP",75,"no","mono","no",18,"no","white","no","yes",1050,NA,100,"psycho",5,0,5,"C:/Users/etp-cp-ping/Desktop/LocalPC-EXP/subject-7.csv","psycho",6,6,6,"Lentiform Loewenfeld","3.3.8","['vert', 'vert', 'hori', 'hori', 'hori', 'vert', 'hori', 'vert']","yes",109,"circles","yes",0,NA,2,"legacy",NA,1024,2,48000,-16,"experiment",7,"odd","green","no",3,"circle",382833.097300001,382859.7309,382859.7697,NA,387473.138000001,NA,NA,97348.6617999988,3986.55099999814,NA,97348.6836999982,421536.693300001,424306.218499998,NA,NA,NA,NA,3986.6331000012,402289.493799999,NA,NA,421536.7081,402796.186200001,421536.642700001,"New experiment",19,"[0]","dist_present",56,45,"yes","yes",1680,NA,NA,NA,NA,"R","NR","lp",NA,"Left",NA,NA,NA,NA,"practice",3,"NR","in"
"7",1214.19859999878,11237.9972999988,11237.9972999988,4,4,"y",5,"['5', '7', '7', 'space']","n","#000000","no",421910.6803,1,"neutral","psycho","psycho","psycho",0,"uniform",1,0,0,0,NA,0,0,NA,0,0,0,0,6,6,NA,NA,NA,NA,0,0,0,NA,6,0,6,73.2296414732588,"Mon Aug  9 14:56:58 2021","The main experiment item","yes","red","no","7","circle",NA,"pinging_target_expectations 3.2.osexp","C:\Users\etp-cp-ping\Desktop\LocalPC-EXP",75,"no","mono","no",18,"no","white","no","yes",1050,NA,100,"psycho",6,0,6,"C:/Users/etp-cp-ping/Desktop/LocalPC-EXP/subject-7.csv","psycho",6,7,7,"Lentiform Loewenfeld","3.3.8","['hori', 'hori', 'vert', 'vert', 'hori', 'vert', 'hori', 'vert']","no",209,"None","yes",0,NA,2,"legacy",NA,1024,2,48000,-16,"experiment",7,"odd","green","no",3,"diamond",382833.097300001,382859.7309,382859.7697,NA,387473.138000001,NA,NA,97348.6617999988,3986.55099999814,NA,97348.6836999982,424336.4975,427666.1957,NA,NA,NA,NA,3986.6331000012,402289.493799999,NA,NA,424336.511699999,402796.186200001,424336.448099999,"New experiment",19,"[0]","dist_present",56,48,"yes","yes",1680,NA,NA,NA,NA,"R","NR","lp",NA,NA,NA,NA,NA,NA,"practice",3,"R","in"
"8",977.846699999645,12215.8439999984,12215.8439999984,5,5,"y",5,"['5', '7', '7', 'space']","n","#000000","no",421910.6803,1,"neutral","psycho","psycho","psycho",0,"uniform",1,0,0,0,NA,0,0,NA,0,0,0,0,7,7,NA,NA,NA,NA,0,0,0,NA,7,0,7,73.2296414732588,"Mon Aug  9 14:56:58 2021","The main experiment item","yes","green","no","5","circle",NA,"pinging_target_expectations 3.2.osexp","C:\Users\etp-cp-ping\Desktop\LocalPC-EXP",75,"no","mono","no",18,"no","white","no","yes",1050,NA,100,"psycho",7,0,7,"C:/Users/etp-cp-ping/Desktop/LocalPC-EXP/subject-7.csv","psycho",6,8,8,"Lentiform Loewenfeld","3.3.8","['vert', 'hori', 'hori', 'vert', 'vert', 'hori', 'vert', 'hori']","no",209,"None","yes",0,NA,2,"legacy",NA,1024,2,48000,-16,"experiment",7,"odd","red","no",0,"diamond",382833.097300001,382859.7309,382859.7697,NA,387473.138000001,NA,NA,97348.6617999988,3986.55099999814,NA,97348.6836999982,427698.291500001,430434.2569,NA,NA,NA,NA,3986.6331000012,402289.493799999,NA,NA,427698.305999998,402796.186200001,427698.239900001,"New experiment",19,"[0]","dist_present",56,16,"yes","yes",1680,NA,NA,NA,NA,"NR","NR","lp","Right",NA,NA,NA,NA,NA,"practice",3,"R","in"
"9",1004.34899999894,13220.1929999974,13220.1929999974,6,6,"y",5,"['5', '7', '7', 'space']","n","#000000","no",430866.8039,1,"neutral","psycho","psycho","psycho",0,"uniform",1,0,0,0,NA,0,0,NA,0,0,0,0,8,8,NA,NA,NA,NA,0,0,0,NA,8,0,8,73.2296414732588,"Mon Aug  9 14:56:58 2021","The main experiment item","yes","green","no","2","circle",NA,"pinging_target_expectations 3.2.osexp","C:\Users\etp-cp-ping\Desktop\LocalPC-EXP",75,"no","mono","no",18,"no","white","no","yes",1050,NA,100,"psycho",8,0,8,"C:/Users/etp-cp-ping/Desktop/LocalPC-EXP/subject-7.csv","psycho",7,9,9,"Lentiform Loewenfeld","3.3.8","['vert', 'hori', 'vert', 'vert', 'hori', 'vert', 'hori', 'hori']","no",209,"None","yes",0,NA,2,"legacy",NA,1024,2,48000,-16,"experiment",7,"odd","red","no",0,"diamond",382833.097300001,382859.7309,382859.7697,NA,387473.138000001,NA,NA,97348.6617999988,3986.55099999814,NA,97348.6836999982,430464.823900002,433314.2291,NA,NA,NA,NA,3986.6331000012,402289.493799999,NA,NA,430464.838600001,402796.186200001,430464.773899999,"New experiment",19,"[0]","dist_present",56,13,"yes","yes",1680,NA,NA,NA,NA,"R","NR","lp","Left",NA,"Left",NA,NA,NA,"practice",0,"NR","in"
"10",1377.58689999825,14597.7798999956,14597.7798999956,6,6,"y",5,"['5', '7', '7', 'space']","n","#000000","no",430866.8039,1,"neutral","psycho","psycho","psycho",0,"uniform",0,0,0,0,NA,0,0,NA,0,0,0,0,9,9,NA,NA,NA,NA,0,0,0,NA,9,0,9,73.2296414732588,"Mon Aug  9 14:56:58 2021","The main experiment item","yes","red","no","1","diamond",NA,"pinging_target_expectations 3.2.osexp","C:\Users\etp-cp-ping\Desktop\LocalPC-EXP",75,"no","mono","no",18,"no","white","no","yes",1050,NA,100,"psycho",9,0,9,"C:/Users/etp-cp-ping/Desktop/LocalPC-EXP/subject-7.csv","psycho",7,10,10,"Lentiform Loewenfeld","3.3.8","['vert', 'hori', 'vert', 'hori', 'vert', 'hori', 'hori', 'vert']","no",209,"None","yes",0,NA,2,"legacy",NA,1024,2,48000,-16,"experiment",7,"odd","green","no",2,"circle",382833.097300001,382859.7309,382859.7697,NA,387473.138000001,NA,NA,97348.6617999988,3986.55099999814,NA,97348.6836999982,433345.213299999,436514.223900001,NA,NA,NA,NA,3986.6331000012,402289.493799999,NA,NA,433345.228400001,402796.186200001,433345.163099999,"New experiment",19,"[0]","dist_present",56,32,"yes","yes",1680,NA,NA,NA,NA,"NR","NR","lp",NA,NA,NA,NA,NA,NA,"practice",0,"R","in"
"11",1590.39140000101,16188.1712999966,16188.1712999966,7,7,"y",5,"['5', '7', '7', 'space']","n","#000000","no",430866.8039,1,"neutral","psycho","psycho","psycho",0,"uniform",1,0,0,0,NA,0,0,NA,0,0,0,0,10,10,NA,NA,NA,NA,0,0,0,NA,10,0,10,73.2296414732588,"Mon Aug  9 14:56:58 2021","The main experiment item","yes","red","no","None","diamond",NA,"pinging_target_expectations 3.2.osexp","C:\Users\etp-cp-ping\Desktop\LocalPC-EXP",75,"no","mono","no",18,"no","white","no","yes",1050,NA,100,"psycho",10,0,10,"C:/Users/etp-cp-ping/Desktop/LocalPC-EXP/subject-7.csv","psycho",7,11,11,"Lentiform Loewenfeld","3.3.8","['hori', 'vert', 'vert', 'hori', 'hori', 'hori', 'vert', 'vert']","no",209,"None","yes",0,NA,2,"legacy",NA,1024,2,48000,-16,"experiment",7,"odd","green","no",5,"circle",382833.097300001,382859.7309,382859.7697,NA,387473.138000001,NA,NA,97348.6617999988,3986.55099999814,NA,97348.6836999982,436544.929600001,440146.220399998,NA,NA,NA,NA,3986.6331000012,402289.493799999,NA,NA,436544.944400001,402796.186200001,436544.879099998,"New experiment",19,"[0]","dist_absent",56,69,"yes","yes",1680,NA,NA,NA,NA,"NR","NR","lp",NA,"Right",NA,NA,NA,NA,"practice",2,"NR","in"
"12",1096.88069999905,17285.0519999957,17285.0519999957,8,8,"y",5,"['5', '7', '7', 'space']","n","#000000","no",430866.8039,1,"neutral","psycho","psycho","psycho",0,"uniform",1,0,0,0,NA,0,0,NA,0,0,0,0,11,11,NA,NA,NA,NA,0,0,0,NA,11,0,11,73.2296414732588,"Mon Aug  9 14:56:58 2021","The main experiment item","yes","green","no","None","circle",NA,"pinging_target_expectations 3.2.osexp","C:\Users\etp-cp-ping\Desktop\LocalPC-EXP",75,"no","mono","no",18,"no","white","no","yes",1050,NA,100,"psycho",11,0,11,"C:/Users/etp-cp-ping/Desktop/LocalPC-EXP/subject-7.csv","psycho",7,12,12,"Lentiform Loewenfeld","3.3.8","['hori', 'vert', 'hori', 'hori', 'vert', 'hori', 'vert', 'vert']","no",209,"None","yes",0,NA,2,"legacy",NA,1024,2,48000,-16,"experiment",7,"odd","red","no",1,"diamond",382833.097300001,382859.7309,382859.7697,NA,387473.138000001,NA,NA,97348.6617999988,3986.55099999814,NA,97348.6836999982,440176.697899999,443330.161099999,NA,NA,NA,NA,3986.6331000012,402289.493799999,NA,NA,440176.712600001,402796.186200001,440176.647699998,"New experiment",19,"[0]","dist_absent",56,29,"yes","yes",1680,NA,NA,NA,NA,"NR","R","lp",NA,"Left",NA,NA,NA,NA,"practice",5,"NR","in"
"13",1521.33969999704,18806.3916999927,18806.3916999927,8,8,"y",5,"['5', '7', '7', 'space']","n","#000000","no",443824.964299998,1,"neutral","psycho","psycho","psycho",0,"uniform",0,0,0,0,NA,0,0,NA,0,0,0,0,12,12,NA,NA,NA,NA,0,0,0,NA,12,0,12,73.2296414732588,"Mon Aug  9 14:56:58 2021","The main experiment item","yes","red","no","None","diamond",NA,"pinging_target_expectations 3.2.osexp","C:\Users\etp-cp-ping\Desktop\LocalPC-EXP",75,"no","mono","no",18,"no","white","no","yes",1050,NA,100,"psycho",12,0,12,"C:/Users/etp-cp-ping/Desktop/LocalPC-EXP/subject-7.csv","psycho",8,13,13,"Lentiform Loewenfeld","3.3.8","['hori', 'hori', 'vert', 'vert', 'hori', 'vert', 'hori', 'vert']","yes",109,"circles","yes",0,NA,2,"legacy",NA,1024,2,48000,-16,"experiment",7,"odd","green","no",0,"circle",382833.097300001,382859.7309,382859.7697,NA,387473.138000001,NA,NA,97348.6617999988,3986.55099999814,NA,97348.6836999982,443360.797599998,446786.173500001,NA,NA,NA,NA,3986.6331000012,402289.493799999,NA,NA,443360.812399998,402796.186200001,443360.7481,"New experiment",19,"[0]","dist_absent",56,19,"yes","yes",1680,NA,NA,NA,NA,"NR","R","lp",NA,NA,NA,NA,NA,NA,"practice",1,"NR","in"
"14",985.042699998303,19791.434399991,19791.434399991,8,8,"y",5,"['5', '7', '7', 'space']","n","#000000","no",443824.964299998,1,"neutral","psycho","psycho","psycho",0,"uniform",0,0,0,0,NA,0,0,NA,0,0,0,0,13,13,NA,NA,NA,NA,0,0,0,NA,13,0,13,73.2296414732588,"Mon Aug  9 14:56:58 2021","The main experiment item","yes","green","no","2","diamond",NA,"pinging_target_expectations 3.2.osexp","C:\Users\etp-cp-ping\Desktop\LocalPC-EXP",75,"no","mono","no",18,"no","white","no","yes",1050,NA,100,"psycho",13,0,13,"C:/Users/etp-cp-ping/Desktop/LocalPC-EXP/subject-7.csv","psycho",8,14,14,"Lentiform Loewenfeld","3.3.8","['hori', 'vert', 'vert', 'hori', 'vert', 'hori', 'vert', 'hori']","yes",109,"diamond","yes",0,NA,2,"legacy",NA,1024,2,48000,-16,"experiment",7,"odd","red","no",4,"circle",382833.097300001,382859.7309,382859.7697,NA,387473.138000001,NA,NA,97348.6617999988,3986.55099999814,NA,97348.6836999982,446816.572,449826.177999999,NA,NA,NA,NA,3986.6331000012,402289.493799999,NA,NA,446816.587000001,402796.186200001,446816.5219,"New experiment",19,"[0]","dist_present",56,53,"yes","yes",1680,NA,NA,NA,NA,"NR","NR","lp","Left",NA,"Left",NA,NA,NA,"practice",0,"NR","in"
"15",1159.13609999913,20950.5704999901,20950.5704999901,9,9,"y",5,"['5', '7', '7', 'space']","n","#000000","no",450997.059599998,1,"neutral","psycho","psycho","psycho",0,"uniform",1,0,0,0,NA,0,0,NA,0,0,0,0,14,14,NA,NA,NA,NA,0,0,0,NA,14,0,14,73.2296414732588,"Mon Aug  9 14:56:58 2021","The main experiment item","yes","red","no","0","circle",NA,"pinging_target_expectations 3.2.osexp","C:\Users\etp-cp-ping\Desktop\LocalPC-EXP",75,"no","mono","no",18,"no","white","no","yes",1050,NA,100,"psycho",14,0,14,"C:/Users/etp-cp-ping/Desktop/LocalPC-EXP/subject-7.csv","psycho",10,15,15,"Lentiform Loewenfeld","3.3.8","['hori', 'hori', 'hori', 'vert', 'vert', 'vert', 'hori', 'vert']","no",209,"None","yes",0,NA,2,"legacy",NA,1024,2,48000,-16,"experiment",7,"odd","green","no",5,"diamond",382833.097300001,382859.7309,382859.7697,NA,387473.138000001,NA,NA,97348.6617999988,3986.55099999814,NA,97348.6836999982,449856.628699999,452818.2628,NA,NA,NA,NA,3986.6331000012,402289.493799999,NA,NA,449856.643399999,402796.186200001,449856.578499999,"New experiment",19,"[0]","dist_present",56,61,"yes","yes",1680,NA,NA,NA,NA,"NR","NR","lp",NA,"Right",NA,NA,NA,NA,"practice",4,"NR","in"
"16",1452.3805999998,22402.9510999899,22402.9510999899,9,9,"y",5,"['5', '7', '7', 'space']","n","#000000","no",450997.059599998,1,"neutral","psycho","psycho","psycho",0,"uniform",0,0,0,0,NA,0,0,NA,0,0,0,0,15,15,NA,NA,NA,NA,0,0,0,NA,15,0,15,73.2296414732588,"Mon Aug  9 14:56:58 2021","The main experiment item","yes","green","no","5","diamond",NA,"pinging_target_expectations 3.2.osexp","C:\Users\etp-cp-ping\Desktop\LocalPC-EXP",75,"no","mono","no",18,"no","white","no","yes",1050,NA,100,"psycho",15,0,15,"C:/Users/etp-cp-ping/Desktop/LocalPC-EXP/subject-7.csv","psycho",10,16,16,"Lentiform Loewenfeld","3.3.8","['vert', 'hori', 'vert', 'vert', 'hori', 'hori', 'vert', 'hori']","no",209,"None","yes",0,NA,2,"legacy",NA,1024,2,48000,-16,"experiment",7,"odd","red","no",2,"circle",382833.097300001,382859.7309,382859.7697,NA,387473.138000001,NA,NA,97348.6617999988,3986.55099999814,NA,97348.6836999982,452848.680200001,456258.1742,NA,NA,NA,NA,3986.6331000012,402289.493799999,NA,NA,452848.6945,402796.186200001,452848.630600001,"New experiment",19,"[0]","dist_present",56,36,"yes","yes",1680,NA,NA,NA,NA,"NR","NR","lp",NA,NA,NA,NA,NA,NA,"practice",5,"NR","in"
"17",1305.19480000297,23708.1458999929,23708.1458999929,10,10,"y",5,"['5', '7', '7', 'space']","n","#000000","no",459440.640100001,1,"neutral","psycho","psycho","psycho",0,"uniform",1,0,0,0,NA,0,0,NA,0,0,0,0,16,16,NA,NA,NA,NA,0,0,0,NA,16,0,16,73.2296414732588,"Mon Aug  9 14:56:58 2021","The main experiment item","yes","red","no","3","diamond",NA,"pinging_target_expectations 3.2.osexp","C:\Users\etp-cp-ping\Desktop\LocalPC-EXP",75,"no","mono","no",18,"no","white","no","yes",1050,NA,100,"psycho",16,0,16,"C:/Users/etp-cp-ping/Desktop/LocalPC-EXP/subject-7.csv","psycho",11,17,17,"Lentiform Loewenfeld","3.3.8","['hori', 'hori', 'vert', 'hori', 'vert', 'vert', 'vert', 'hori']","no",209,"None","yes",0,NA,2,"legacy",NA,1024,2,48000,-16,"experiment",7,"odd","green","no",2,"circle",382833.097300001,382859.7309,382859.7697,NA,387473.138000001,NA,NA,97348.6617999988,3986.55099999814,NA,97348.6836999982,456288.637400001,459442.170099999,NA,NA,NA,NA,3986.6331000012,402289.493799999,NA,NA,456288.651999999,402796.186200001,456288.588899999,"New experiment",19,"[0, 759.7273844425232, 757.7964352259856, 754.4782140904483, 751.211276014237, 747.6704995344036, 745.3565473488388, 743.0748201492528, 741.9971917918245, 741.2164546385582, 740.4670339384558, 739.9518792683851, 741.3422752759546, 740.5767899393524, 740.3736794647301, 740.2022468621456, 740.4208520789781, 740.5922064206053, 740.5767899393524, 740.1242898650491, 739.9683917546071, 739.5633821920196, 739.12391980515, 737.9848071147724, 738.0474124058612, 738.3747189311413, 737.781660611969, 738.3132803898357, 738.5164701677189, 738.7823994785605, 739.7971220853077, 739.4380849830784, 739.7666070196269, 740.1562557229015, 739.9057868493048, 739.9210733352763, 740.5761270794516, 740.7478512133204, 742.1534741706972, 744.0430668923858, 746.8095703394466, 751.7498129267158, 752.8474281021355, 748.7624371195523, 734.9896819867295, 721.7509179478709, 706.1794212002789, 685.7532195157197, 661.5493675036901, 626.2586032304209, 579.4771185287991, 566.6317137724793]","dist_present",56,34,"yes","no",1680,NA,NA,NA,NA,"R","NR","lp",NA,NA,NA,NA,NA,NA,"practice",2,"NR","in"
"18",1416.77229999914,25124.918199992,25124.918199992,11,11,"y",5,"['5', '7', '7', 'space']","n","#000000","no",462815.9638,1,"neutral","psycho","psycho","psycho",0,"uniform",1,0,0,0,NA,0,0,NA,0,0,0,0,17,17,NA,NA,NA,NA,0,0,0,NA,17,0,17,73.2296414732588,"Mon Aug  9 14:56:58 2021","The main experiment item","yes","red","no","0","circle",NA,"pinging_target_expectations 3.2.osexp","C:\Users\etp-cp-ping\Desktop\LocalPC-EXP",75,"no","mono","no",18,"no","white","no","yes",1050,NA,100,"psycho",17,0,17,"C:/Users/etp-cp-ping/Desktop/LocalPC-EXP/subject-7.csv","psycho",12,18,18,"Lentiform Loewenfeld","3.3.8","['hori', 'vert', 'vert', 'hori', 'vert', 'vert', 'hori', 'hori']","no",209,"None","yes",0,NA,2,"legacy",NA,1024,2,48000,-16,"experiment",7,"odd","green","no",2,"diamond",382833.097300001,382859.7309,382859.7697,NA,387473.138000001,NA,NA,97348.6617999988,3986.55099999814,NA,97348.6836999982,459474.143799998,462818.239799999,NA,NA,NA,NA,3986.6331000012,402289.493799999,NA,NA,459474.1584,402796.186200001,459474.0939,"New experiment",19,"[0]","dist_present",56,31,"yes","no",1680,NA,NA,NA,NA,"R","NR","lp",NA,"Left",NA,"Left",NA,NA,"practice",2,"R","in"
"19",890.38140000042,26015.2995999925,26015.2995999925,12,12,"y",5,"['5', '7', '7', 'space']","n","#000000","no",465808.584899998,1,"neutral","psycho","psycho","psycho",0,"uniform",1,0,0,0,NA,0,0,NA,0,0,0,0,18,18,NA,NA,NA,NA,0,0,0,NA,18,0,18,73.2296414732588,"Mon Aug  9 14:56:58 2021","The main experiment item","yes","green","no","None","circle",NA,"pinging_target_expectations 3.2.osexp","C:\Users\etp-cp-ping\Desktop\LocalPC-EXP",75,"no","mono","no",18,"no","white","no","yes",1050,NA,100,"psycho",18,0,18,"C:/Users/etp-cp-ping/Desktop/LocalPC-EXP/subject-7.csv","psycho",13,19,19,"Lentiform Loewenfeld","3.3.8","['vert', 'vert', 'vert', 'vert', 'hori', 'hori', 'hori', 'hori']","yes",109,"diamond","yes",0,NA,2,"legacy",NA,1024,2,48000,-16,"experiment",7,"odd","red","no",1,"diamond",382833.097300001,382859.7309,382859.7697,NA,387473.138000001,NA,NA,97348.6617999988,3986.55099999814,NA,97348.6836999982,462848.660399999,465810.095299999,NA,NA,NA,NA,3986.6331000012,402289.493799999,NA,NA,462848.6748,402796.186200001,462848.6118,"New experiment",19,"[0]","dist_absent",56,29,"yes","no",1680,NA,NA,NA,NA,"NR","NR","lp",NA,"Left",NA,NA,NA,NA,"practice",2,"R","in"
"20",1056.74549999821,27072.0450999907,27072.0450999907,13,13,"y",5,"['5', '7', '7', 'space']","n","#000000","no",468688.1173,1,"neutral","psycho","psycho","psycho",0,"uniform",1,0,0,0,NA,0,0,NA,0,0,0,0,19,19,NA,NA,NA,NA,0,0,0,NA,19,0,19,73.2296414732588,"Mon Aug  9 14:56:58 2021","The main experiment item","yes","green","no","None","diamond",NA,"pinging_target_expectations 3.2.osexp","C:\Users\etp-cp-ping\Desktop\LocalPC-EXP",75,"no","mono","no",18,"no","white","no","yes",1050,NA,100,"psycho",19,0,19,"C:/Users/etp-cp-ping/Desktop/LocalPC-EXP/subject-7.csv","psycho",14,20,20,"Lentiform Loewenfeld","3.3.8","['vert', 'vert', 'hori', 'vert', 'hori', 'hori', 'vert', 'hori']","no",209,"None","yes",0,NA,2,"legacy",NA,1024,2,48000,-16,"experiment",7,"odd","red","no",4,"circle",382833.097300001,382859.7309,382859.7697,NA,387473.138000001,NA,NA,97348.6617999988,3986.55099999814,NA,97348.6836999982,465840.405200001,468690.137099999,NA,NA,NA,NA,3986.6331000012,402289.493799999,NA,NA,465840.42,402796.186200001,465840.3555,"New experiment",19,"[0]","dist_absent",56,59,"yes","no",1680,NA,NA,NA,NA,"NR","R","lp",NA,NA,NA,NA,NA,NA,"practice",1,"NR","in"
"21",735.197900001367,27807.242999992,27807.242999992,14,14,"y",5,"['5', '7', '7', 'space']","n","#000000","no",471520.6807,1,"neutral","psycho","psycho","psycho",0,"uniform",1,0,0,0,NA,0,0,NA,0,0,0,0,20,20,NA,NA,NA,NA,0,0,0,NA,20,0,20,73.2296414732588,"Mon Aug  9 14:56:58 2021","The main experiment item","yes","red","no","1","circle",NA,"pinging_target_expectations 3.2.osexp","C:\Users\etp-cp-ping\Desktop\LocalPC-EXP",75,"no","mono","no",18,"no","white","no","yes",1050,NA,100,"psycho",20,0,20,"C:/Users/etp-cp-ping/Desktop/LocalPC-EXP/subject-7.csv","psycho",15,21,21,"Lentiform Loewenfeld","3.3.8","['hori', 'vert', 'vert', 'hori', 'hori', 'vert', 'hori', 'vert']","no",209,"None","yes",0,NA,2,"legacy",NA,1024,2,48000,-16,"experiment",7,"odd","green","no",5,"diamond",382833.097300001,382859.7309,382859.7697,NA,387473.138000001,NA,NA,97348.6617999988,3986.55099999814,NA,97348.6836999982,468720.637899998,471522.0964,NA,NA,NA,NA,3986.6331000012,402289.493799999,NA,NA,468720.6525,402796.186200001,468720.5889,"New experiment",19,"[0]","dist_present",56,62,"yes","no",1680,NA,NA,NA,NA,"NR","NR","lp",NA,NA,NA,NA,NA,NA,"practice",4,"NR","in"
"22",1311.20189999999,29118.444899992,29118.444899992,15,15,"y",5,"['5', '7', '7', 'space']","n","#000000","no",474880.093399999,1,"neutral","psycho","psycho","psycho",0,"uniform",1,0,0,0,NA,0,0,NA,0,0,0,0,21,21,NA,NA,NA,NA,0,0,0,NA,21,0,21,73.2296414732588,"Mon Aug  9 14:56:58 2021","The main experiment item","yes","green","no","None","circle",NA,"pinging_target_expectations 3.2.osexp","C:\Users\etp-cp-ping\Desktop\LocalPC-EXP",75,"no","mono","no",18,"no","white","no","yes",1050,NA,100,"psycho",21,0,21,"C:/Users/etp-cp-ping/Desktop/LocalPC-EXP/subject-7.csv","psycho",16,22,22,"Lentiform Loewenfeld","3.3.8","['hori', 'hori', 'vert', 'vert', 'hori', 'vert', 'vert', 'hori']","yes",109,"diamond","yes",0,NA,2,"legacy",NA,1024,2,48000,-16,"experiment",7,"odd","red","no",1,"diamond",382833.097300001,382859.7309,382859.7697,NA,387473.138000001,NA,NA,97348.6617999988,3986.55099999814,NA,97348.6836999982,471552.649599998,474882.140099999,NA,NA,NA,NA,3986.6331000012,402289.493799999,NA,NA,471552.6642,402796.186200001,471552.600899999,"New experiment",19,"[0]","dist_absent",56,29,"yes","no",1680,NA,NA,NA,NA,"NR","NR","lp",NA,"Left",NA,NA,NA,NA,"practice",5,"NR","in"
"23",1098.12279999827,30216.5676999903,30216.5676999903,16,16,"y",5,"['5', '7', '7', 'space']","n","#000000","no",477967.932899999,1,"neutral","psycho","psycho","psycho",0,"uniform",1,0,0,0,NA,0,0,NA,0,0,0,0,22,22,NA,NA,NA,NA,0,0,0,NA,22,0,22,73.2296414732588,"Mon Aug  9 14:56:58 2021","The main experiment item","yes","red","no","0","circle",NA,"pinging_target_expectations 3.2.osexp","C:\Users\etp-cp-ping\Desktop\LocalPC-EXP",75,"no","mono","no",18,"no","white","no","yes",1050,NA,100,"psycho",22,0,22,"C:/Users/etp-cp-ping/Desktop/LocalPC-EXP/subject-7.csv","psycho",17,23,23,"Lentiform Loewenfeld","3.3.8","['hori', 'vert', 'hori', 'hori', 'hori', 'vert', 'vert', 'vert']","yes",109,"circles","yes",0,NA,2,"legacy",NA,1024,2,48000,-16,"experiment",7,"odd","green","no",7,"diamond",382833.097300001,382859.7309,382859.7697,NA,387473.138000001,NA,NA,97348.6617999988,3986.55099999814,NA,97348.6836999982,474912.571000001,477970.156899999,NA,NA,NA,NA,3986.6331000012,402289.493799999,NA,NA,474912.585099999,402796.186200001,474912.520000002,"New experiment",19,"[0]","dist_present",56,81,"yes","no",1680,NA,NA,NA,NA,"NR","NR","lp",NA,"Right",NA,NA,NA,NA,"practice",1,"NR","in"
"24",798.724700001883,31015.2923999922,31015.2923999922,16,16,"y",5,"['5', '7', '7', 'space']","n","#000000","no",480608.345299999,1,"neutral","psycho","psycho","psycho",0,"uniform",0,0,0,0,NA,0,0,NA,0,0,0,0,23,23,NA,NA,NA,NA,0,0,0,NA,23,0,23,73.2296414732588,"Mon Aug  9 14:56:58 2021","The main experiment item","yes","green","no","None","circle",NA,"pinging_target_expectations 3.2.osexp","C:\Users\etp-cp-ping\Desktop\LocalPC-EXP",75,"no","mono","no",18,"no","white","no","yes",1050,NA,100,"psycho",23,0,23,"C:/Users/etp-cp-ping/Desktop/LocalPC-EXP/subject-7.csv","psycho",18,24,24,"Lentiform Loewenfeld","3.3.8","['vert', 'hori', 'vert', 'hori', 'hori', 'vert', 'vert', 'hori']","yes",109,"circles","yes",0,NA,2,"legacy",NA,1024,2,48000,-16,"experiment",7,"odd","red","no",7,"diamond",382833.097300001,382859.7309,382859.7697,NA,387473.138000001,NA,NA,97348.6617999988,3986.55099999814,NA,97348.6836999982,478000.633,480610.210999999,NA,NA,NA,NA,3986.6331000012,402289.493799999,NA,NA,478000.6479,402796.186200001,478000.582299999,"New experiment",19,"[0]","dist_absent",56,89,"yes","no",1680,NA,NA,NA,NA,"R","NR","lp",NA,"Right",NA,NA,NA,NA,"practice",7,"NR","in"
"25",1060.87099999789,32076.1633999901,32076.1633999901,17,17,"y",5,"['5', '7', '7', 'space']","n","#000000","no",483632.1752,1,"neutral","psycho","psycho","psycho",0,"uniform",1,0,0,0,NA,0,0,NA,0,0,0,0,24,24,NA,NA,NA,NA,0,0,0,NA,24,0,24,73.2296414732588,"Mon Aug  9 14:56:58 2021","The main experiment item","yes","green","no","0","diamond",NA,"pinging_target_expectations 3.2.osexp","C:\Users\etp-cp-ping\Desktop\LocalPC-EXP",75,"no","mono","no",18,"no","white","no","yes",1050,NA,100,"psycho",24,0,24,"C:/Users/etp-cp-ping/Desktop/LocalPC-EXP/subject-7.csv","psycho",19,25,25,"Lentiform Loewenfeld","3.3.8","['hori', 'hori', 'hori', 'vert', 'vert', 'vert', 'vert', 'hori']","yes",109,"circles","yes",0,NA,2,"legacy",NA,1024,2,48000,-16,"experiment",7,"odd","red","no",4,"circle",382833.097300001,382859.7309,382859.7697,NA,387473.138000001,NA,NA,97348.6617999988,3986.55099999814,NA,97348.6836999982,480642.169999999,483634.168799999,NA,NA,NA,NA,3986.6331000012,402289.493799999,NA,NA,480642.184799999,402796.186200001,480642.120100001,"New experiment",19,"[0]","dist_present",56,51,"yes","no",1680,NA,NA,NA,NA,"NR","NR","lp",NA,NA,NA,NA,NA,NA,"practice",7,"R","in"
"26",1478.34680000239,33554.5101999925,33554.5101999925,17,17,"y",5,"['5', '7', '7', 'space']","n","#000000","no",486864.3778,1,"neutral","psycho","psycho","psycho",0,"uniform",0,0,0,0,NA,0,0,NA,0,0,0,0,25,25,NA,NA,NA,NA,0,0,0,NA,25,0,25,73.2296414732588,"Mon Aug  9 14:56:58 2021","The main experiment item","yes","red","no","6","circle",NA,"pinging_target_expectations 3.2.osexp","C:\Users\etp-cp-ping\Desktop\LocalPC-EXP",75,"no","mono","no",18,"no","white","no","yes",1050,NA,100,"psycho",25,0,25,"C:/Users/etp-cp-ping/Desktop/LocalPC-EXP/subject-7.csv","psycho",20,26,26,"Lentiform Loewenfeld","3.3.8","['hori', 'vert', 'hori', 'hori', 'vert', 'vert', 'vert', 'hori']","yes",109,"circles","yes",0,NA,2,"legacy",NA,1024,2,48000,-16,"experiment",7,"odd","green","no",5,"diamond",382833.097300001,382859.7309,382859.7697,NA,387473.138000001,NA,NA,97348.6617999988,3986.55099999814,NA,97348.6836999982,483664.734800001,486866.167200002,NA,NA,NA,NA,3986.6331000012,402289.493799999,NA,NA,483664.7495,402796.186200001,483664.685,"New experiment",19,"[0]","dist_present",56,67,"yes","no",1680,NA,NA,NA,NA,"NR","NR","lp",NA,NA,NA,NA,NA,NA,"practice",4,"NR","in"
"27",1243.58869999921,34798.0988999917,34798.0988999917,18,18,"y",5,"['5', '7', '7', 'space']","n","#000000","no",490112.564999999,1,"neutral","psycho","psycho","psycho",0,"uniform",1,0,0,0,NA,0,0,NA,0,0,0,0,26,26,NA,NA,NA,NA,0,0,0,NA,26,0,26,73.2296414732588,"Mon Aug  9 14:56:58 2021","The main experiment item","yes","green","no","4","diamond",NA,"pinging_target_expectations 3.2.osexp","C:\Users\etp-cp-ping\Desktop\LocalPC-EXP",75,"no","mono","no",18,"no","white","no","yes",1050,NA,100,"psycho",26,0,26,"C:/Users/etp-cp-ping/Desktop/LocalPC-EXP/subject-7.csv","psycho",21,27,27,"Lentiform Loewenfeld","3.3.8","['hori', 'hori', 'hori', 'vert', 'vert', 'vert', 'hori', 'vert']","yes",109,"diamond","yes",0,NA,2,"legacy",NA,1024,2,48000,-16,"experiment",7,"odd","red","no",6,"circle",382833.097300001,382859.7309,382859.7697,NA,387473.138000001,NA,NA,97348.6617999988,3986.55099999814,NA,97348.6836999982,486896.680000002,490114.115100001,NA,NA,NA,NA,3986.6331000012,402289.493799999,NA,NA,486896.6946,402796.186200001,486896.6272,"New experiment",19,"[0]","dist_present",56,75,"yes","no",1680,NA,NA,NA,NA,"NR","NR","lp",NA,"Right",NA,"Right",NA,NA,"practice",5,"NR","in"
"28",1269.28480000061,36067.3836999923,36067.3836999923,18,18,"y",5,"['5', '7', '7', 'space']","n","#000000","no",493520.719799999,1,"neutral","psycho","psycho","psycho",0,"uniform",0,0,0,0,NA,0,0,NA,0,0,0,0,27,27,NA,NA,NA,NA,0,0,0,NA,27,0,27,73.2296414732588,"Mon Aug  9 14:56:58 2021","The main experiment item","yes","green","no","3","circle",NA,"pinging_target_expectations 3.2.osexp","C:\Users\etp-cp-ping\Desktop\LocalPC-EXP",75,"no","mono","no",18,"no","white","no","yes",1050,NA,100,"psycho",27,0,27,"C:/Users/etp-cp-ping/Desktop/LocalPC-EXP/subject-7.csv","psycho",22,28,28,"Lentiform Loewenfeld","3.3.8","['vert', 'hori', 'vert', 'hori', 'hori', 'vert', 'vert', 'hori']","yes",109,"diamond","yes",0,NA,2,"legacy",NA,1024,2,48000,-16,"experiment",7,"odd","red","no",1,"diamond",382833.097300001,382859.7309,382859.7697,NA,387473.138000001,NA,NA,97348.6617999988,3986.55099999814,NA,97348.6836999982,490145.589299998,493522.162699999,NA,NA,NA,NA,3986.6331000012,402289.493799999,NA,NA,490145.603599998,402796.186200001,490145.539500001,"New experiment",19,"[0]","dist_present",56,24,"yes","no",1680,NA,NA,NA,NA,"NR","NR","lp",NA,NA,NA,NA,NA,NA,"practice",6,"NR","in"
"29",1452.1939000006,37519.5775999929,37519.5775999929,19,19,"y",5,"['5', '7', '7', 'space']","n","#000000","no",497040.370999999,1,"neutral","psycho","psycho","psycho",0,"uniform",1,0,0,0,NA,0,0,NA,0,0,0,0,28,28,NA,NA,NA,NA,0,0,0,NA,28,0,28,73.2296414732588,"Mon Aug  9 14:56:58 2021","The main experiment item","yes","red","no","6","diamond",NA,"pinging_target_expectations 3.2.osexp","C:\Users\etp-cp-ping\Desktop\LocalPC-EXP",75,"no","mono","no",18,"no","white","no","yes",1050,NA,100,"psycho",28,0,28,"C:/Users/etp-cp-ping/Desktop/LocalPC-EXP/subject-7.csv","psycho",23,29,29,"Lentiform Loewenfeld","3.3.8","['hori', 'vert', 'hori', 'vert', 'hori', 'hori', 'vert', 'vert']","no",209,"None","yes",0,NA,2,"legacy",NA,1024,2,48000,-16,"experiment",7,"odd","green","no",3,"circle",382833.097300001,382859.7309,382859.7697,NA,387473.138000001,NA,NA,97348.6617999988,3986.55099999814,NA,97348.6836999982,493552.792099999,497042.209899999,NA,NA,NA,NA,3986.6331000012,402289.493799999,NA,NA,493552.8065,402796.186200001,493552.741700001,"New experiment",19,"[0]","dist_present",56,47,"yes","no",1680,NA,NA,NA,NA,"NR","NR","lp",NA,NA,NA,NA,NA,NA,"practice",1,"NR","in"
"30",2000.3991000012,39519.9766999941,39519.9766999941,19,19,"y",5,"['5', '7', '7', 'space']","n","#000000","no",501022.649899998,1,"neutral","psycho","psycho","psycho",0,"uniform",0,0,0,0,NA,0,0,NA,0,0,0,0,29,29,NA,NA,NA,NA,0,0,0,NA,29,0,29,73.2296414732588,"Mon Aug  9 14:56:58 2021","The main experiment item","yes","red","no","None","circle",NA,"pinging_target_expectations 3.2.osexp","C:\Users\etp-cp-ping\Desktop\LocalPC-EXP",75,"no","mono","no",18,"no","white","no","yes",1050,NA,100,"psycho",29,0,29,"C:/Users/etp-cp-ping/Desktop/LocalPC-EXP/subject-7.csv","psycho",24,30,30,"Lentiform Loewenfeld","3.3.8","['hori', 'hori', 'vert', 'hori', 'hori', 'vert', 'vert', 'vert']","yes",109,"diamond","yes",0,NA,2,"legacy",NA,1024,2,48000,-16,"experiment",7,"odd","green","no",0,"diamond",382833.097300001,382859.7309,382859.7697,NA,387473.138000001,NA,NA,97348.6617999988,3986.55099999814,NA,97348.6836999982,497072.5251,501023.781600001,NA,NA,NA,NA,3986.6331000012,402289.493799999,NA,NA,497072.540000001,402796.186200001,497072.4544,"New experiment",19,"[0]","dist_absent",56,19,"yes","no",1680,NA,NA,NA,NA,"NR","NR","lp",NA,NA,NA,NA,NA,NA,"practice",3,"NR","in"
"31",1125.20020000014,40645.1768999942,40645.1768999942,20,20,"y",5,"['5', '7', '7', 'space']","n","#000000","no",503904.355399998,1,"neutral","psycho","psycho","psycho",0,"uniform",1,0,0,0,NA,0,0,NA,0,0,0,0,30,30,NA,NA,NA,NA,0,0,0,NA,30,0,30,73.2296414732588,"Mon Aug  9 14:56:58 2021","The main experiment item","yes","red","no","4","diamond",NA,"pinging_target_expectations 3.2.osexp","C:\Users\etp-cp-ping\Desktop\LocalPC-EXP",75,"no","mono","no",18,"no","white","no","yes",1050,NA,100,"psycho",30,0,30,"C:/Users/etp-cp-ping/Desktop/LocalPC-EXP/subject-7.csv","psycho",25,31,31,"Lentiform Loewenfeld","3.3.8","['vert', 'vert', 'hori', 'vert', 'hori', 'hori', 'hori', 'vert']","no",209,"None","yes",0,NA,2,"legacy",NA,1024,2,48000,-16,"experiment",7,"odd","green","no",7,"circle",382833.097300001,382859.7309,382859.7697,NA,387473.138000001,NA,NA,97348.6617999988,3986.55099999814,NA,97348.6836999982,501054.261900001,503906.134299999,NA,NA,NA,NA,3986.6331000012,402289.493799999,NA,NA,501054.276499999,402796.186200001,501054.213299998,"New experiment",19,"[0]","dist_present",56,85,"yes","no",1680,NA,NA,NA,NA,"NR","NR","lp",NA,"Right",NA,NA,NA,NA,"practice",0,"NR","in"
"32",1486.7052000009,42131.8820999951,42131.8820999951,21,21,"y",5,"['5', '7', '7', 'space']","n","#000000","no",507439.943900001,1,"neutral","psycho","psycho","psycho",0,"uniform",1,0,0,0,NA,0,0,NA,0,0,0,0,31,31,NA,NA,NA,NA,0,0,0,NA,31,0,31,73.2296414732588,"Mon Aug  9 14:56:58 2021","The main experiment item","yes","green","no","7","diamond",NA,"pinging_target_expectations 3.2.osexp","C:\Users\etp-cp-ping\Desktop\LocalPC-EXP",75,"no","mono","no",18,"no","white","no","yes",1050,NA,100,"psycho",31,0,31,"C:/Users/etp-cp-ping/Desktop/LocalPC-EXP/subject-7.csv","psycho",26,32,32,"Lentiform Loewenfeld","3.3.8","['vert', 'vert', 'hori', 'hori', 'hori', 'vert', 'hori', 'vert']","yes",109,"diamond","yes",0,NA,2,"legacy",NA,1024,2,48000,-16,"experiment",7,"odd","red","no",2,"circle",382833.097300001,382859.7309,382859.7697,NA,387473.138000001,NA,NA,97348.6617999988,3986.55099999814,NA,97348.6836999982,503936.537699999,507442.1176,NA,NA,NA,NA,3986.6331000012,402289.493799999,NA,NA,503936.552499999,402796.186200001,503936.486300001,"New experiment",19,"[0]","dist_present",56,38,"yes","no",1680,NA,NA,NA,NA,"NR","NR","lp",NA,NA,NA,NA,NA,NA,"practice",7,"NR","in"
"33",2000.07300000289,44131.955099998,44131.955099998,21,21,"y",5,"['5', '7', '7', 'space']","n","#000000","no",511369.0675,1,"neutral","psycho","psycho","psycho",0,"uniform",0,0,0,0,NA,0,0,NA,0,0,0,0,32,32,NA,NA,NA,NA,0,0,0,NA,32,0,32,73.2296414732588,"Mon Aug  9 14:56:58 2021","The main experiment item","yes","red","no","None","circle",NA,"pinging_target_expectations 3.2.osexp","C:\Users\etp-cp-ping\Desktop\LocalPC-EXP",75,"no","mono","no",18,"no","white","no","yes",1050,NA,100,"psycho",32,0,32,"C:/Users/etp-cp-ping/Desktop/LocalPC-EXP/subject-7.csv","psycho",27,33,33,"Lentiform Loewenfeld","3.3.8","['vert', 'vert', 'vert', 'hori', 'vert', 'hori', 'hori', 'hori']","yes",109,"diamond","yes",0,NA,2,"legacy",NA,1024,2,48000,-16,"experiment",7,"odd","green","no",6,"diamond",382833.097300001,382859.7309,382859.7697,NA,387473.138000001,NA,NA,97348.6617999988,3986.55099999814,NA,97348.6836999982,507472.591499998,511370.187100001,NA,NA,NA,NA,3986.6331000012,402289.493799999,NA,NA,507472.6061,402796.186200001,507472.541300001,"New experiment",19,"[0]","dist_absent",56,79,"yes","no",1680,NA,NA,NA,NA,"NR","NR","lp",NA,"Right",NA,"Right",NA,NA,"practice",2,"NR","in"
"34",1179.09180000058,45311.0468999986,45311.0468999986,22,22,"y",5,"['5', '7', '7', 'space']","n","#000000","no",514352.117300001,1,"neutral","psycho","psycho","psycho",0,"uniform",1,0,0,0,NA,0,0,NA,0,0,0,0,33,33,NA,NA,NA,NA,0,0,0,NA,33,0,33,73.2296414732588,"Mon Aug  9 14:56:58 2021","The main experiment item","yes","green","no","1","circle",NA,"pinging_target_expectations 3.2.osexp","C:\Users\etp-cp-ping\Desktop\LocalPC-EXP",75,"no","mono","no",18,"no","white","no","yes",1050,NA,100,"psycho",33,0,33,"C:/Users/etp-cp-ping/Desktop/LocalPC-EXP/subject-7.csv","psycho",28,34,34,"Lentiform Loewenfeld","3.3.8","['vert', 'hori', 'vert', 'hori', 'vert', 'vert', 'hori', 'hori']","no",209,"None","yes",0,NA,2,"legacy",NA,1024,2,48000,-16,"experiment",7,"odd","red","no",6,"diamond",382833.097300001,382859.7309,382859.7697,NA,387473.138000001,NA,NA,97348.6617999988,3986.55099999814,NA,97348.6836999982,511400.774099999,514354.127800001,NA,NA,NA,NA,3986.6331000012,402289.493799999,NA,NA,511400.788700001,402796.186200001,511400.723899998,"New experiment",19,"[0]","dist_present",56,72,"yes","no",1680,NA,NA,NA,NA,"R","NR","lp",NA,NA,NA,NA,NA,NA,"practice",6,"NR","in"
"35",1394.63519999845,46705.682099997,46705.682099997,23,23,"y",5,"['5', '7', '7', 'space']","n","#000000","no",517648.751299999,1,"neutral","psycho","psycho","psycho",0,"uniform",1,0,0,0,NA,0,0,NA,0,0,0,0,34,34,NA,NA,NA,NA,0,0,0,NA,34,0,34,73.2296414732588,"Mon Aug  9 14:56:58 2021","The main experiment item","yes","green","no","2","diamond",NA,"pinging_target_expectations 3.2.osexp","C:\Users\etp-cp-ping\Desktop\LocalPC-EXP",75,"no","mono","no",18,"no","white","no","yes",1050,NA,100,"psycho",34,0,34,"C:/Users/etp-cp-ping/Desktop/LocalPC-EXP/subject-7.csv","psycho",29,35,35,"Lentiform Loewenfeld","3.3.8","['hori', 'vert', 'vert', 'hori', 'hori', 'vert', 'vert', 'hori']","yes",109,"circles","yes",0,NA,2,"legacy",NA,1024,2,48000,-16,"experiment",7,"odd","red","no",7,"circle",382833.097300001,382859.7309,382859.7697,NA,387473.138000001,NA,NA,97348.6617999988,3986.55099999814,NA,97348.6836999982,514384.675199999,517650.145799998,NA,NA,NA,NA,3986.6331000012,402289.493799999,NA,NA,514384.689800001,402796.186200001,514384.622999998,"New experiment",19,"[0]","dist_present",56,83,"yes","no",1680,NA,NA,NA,NA,"NR","NR","lp",NA,NA,NA,NA,NA,NA,"practice",6,"R","in"
"36",1330.45839999977,48036.1404999968,48036.1404999968,24,24,"y",5,"['5', '7', '7', 'space']","n","#000000","no",520816.398999999,1,"neutral","psycho","psycho","psycho",0,"uniform",1,0,0,0,NA,0,0,NA,0,0,0,0,35,35,NA,NA,NA,NA,0,0,0,NA,35,0,35,73.2296414732588,"Mon Aug  9 14:56:58 2021","The main experiment item","yes","green","no","5","circle",NA,"pinging_target_expectations 3.2.osexp","C:\Users\etp-cp-ping\Desktop\LocalPC-EXP",75,"no","mono","no",18,"no","white","no","yes",1050,NA,100,"psycho",35,0,35,"C:/Users/etp-cp-ping/Desktop/LocalPC-EXP/subject-7.csv","psycho",30,36,36,"Lentiform Loewenfeld","3.3.8","['hori', 'vert', 'hori', 'hori', 'vert', 'hori', 'vert', 'vert']","yes",109,"circles","yes",0,NA,2,"legacy",NA,1024,2,48000,-16,"experiment",7,"odd","red","no",6,"diamond",382833.097300001,382859.7309,382859.7697,NA,387473.138000001,NA,NA,97348.6617999988,3986.55099999814,NA,97348.6836999982,517680.484500001,520818.156400001,NA,NA,NA,NA,3986.6331000012,402289.493799999,NA,NA,517680.499099999,402796.186200001,517680.434400001,"New experiment",19,"[0]","dist_present",56,76,"yes","no",1680,NA,NA,NA,NA,"NR","NR","lp",NA,NA,NA,NA,NA,NA,"practice",7,"NR","in"
"37",1075.47129999881,49111.6117999956,49111.6117999956,25,25,"y",5,"['5', '7', '7', 'space']","n","#000000","no",523696.1128,1,"neutral","psycho","psycho","psycho",0,"uniform",1,0,0,0,NA,0,0,NA,0,0,0,0,36,36,NA,NA,NA,NA,0,0,0,NA,36,0,36,73.2296414732588,"Mon Aug  9 14:56:58 2021","The main experiment item","yes","green","no","None","circle",NA,"pinging_target_expectations 3.2.osexp","C:\Users\etp-cp-ping\Desktop\LocalPC-EXP",75,"no","mono","no",18,"no","white","no","yes",1050,NA,100,"psycho",36,0,36,"C:/Users/etp-cp-ping/Desktop/LocalPC-EXP/subject-7.csv","psycho",31,37,37,"Lentiform Loewenfeld","3.3.8","['vert', 'vert', 'hori', 'hori', 'vert', 'hori', 'hori', 'vert']","yes",109,"diamond","yes",0,NA,2,"legacy",NA,1024,2,48000,-16,"experiment",7,"odd","red","no",4,"diamond",382833.097300001,382859.7309,382859.7697,NA,387473.138000001,NA,NA,97348.6617999988,3986.55099999814,NA,97348.6836999982,520848.7274,523698.150100001,NA,NA,NA,NA,3986.6331000012,402289.493799999,NA,NA,520848.742099999,402796.186200001,520848.6772,"New experiment",19,"[0]","dist_absent",56,59,"yes","no",1680,NA,NA,NA,NA,"NR","NR","lp",NA,NA,NA,NA,NA,NA,"practice",6,"NR","in"
"38",1324.42029999953,50436.0320999951,50436.0320999951,26,26,"y",5,"['5', '7', '7', 'space']","n","#000000","no",526848.560499999,1,"neutral","psycho","psycho","psycho",0,"uniform",1,0,0,0,NA,0,0,NA,0,0,0,0,37,37,NA,NA,NA,NA,0,0,0,NA,37,0,37,73.2296414732588,"Mon Aug  9 14:56:58 2021","The main experiment item","yes","red","no","6","diamond",NA,"pinging_target_expectations 3.2.osexp","C:\Users\etp-cp-ping\Desktop\LocalPC-EXP",75,"no","mono","no",18,"no","white","no","yes",1050,NA,100,"psycho",37,0,37,"C:/Users/etp-cp-ping/Desktop/LocalPC-EXP/subject-7.csv","psycho",32,38,38,"Lentiform Loewenfeld","3.3.8","['vert', 'vert', 'hori', 'hori', 'hori', 'vert', 'hori', 'vert']","no",209,"None","yes",0,NA,2,"legacy",NA,1024,2,48000,-16,"experiment",7,"odd","green","no",3,"circle",382833.097300001,382859.7309,382859.7697,NA,387473.138000001,NA,NA,97348.6617999988,3986.55099999814,NA,97348.6836999982,523728.817399999,526850.1392,NA,NA,NA,NA,3986.6331000012,402289.493799999,NA,NA,523728.832100001,402796.186200001,523728.767299999,"New experiment",19,"[0]","dist_present",56,47,"yes","no",1680,NA,NA,NA,NA,"NR","NR","lp",NA,NA,NA,NA,NA,NA,"practice",4,"NR","in"
"39",1114.46629999776,51550.4983999929,51550.4983999929,27,27,"y",5,"['5', '7', '7', 'space']","n","#000000","no",529904.1297,1,"neutral","psycho","psycho","psycho",0,"uniform",1,0,0,0,NA,0,0,NA,0,0,0,0,38,38,NA,NA,NA,NA,0,0,0,NA,38,0,38,73.2296414732588,"Mon Aug  9 14:56:58 2021","The main experiment item","yes","green","no","3","diamond",NA,"pinging_target_expectations 3.2.osexp","C:\Users\etp-cp-ping\Desktop\LocalPC-EXP",75,"no","mono","no",18,"no","white","no","yes",1050,NA,100,"psycho",38,0,38,"C:/Users/etp-cp-ping/Desktop/LocalPC-EXP/subject-7.csv","psycho",33,39,39,"Lentiform Loewenfeld","3.3.8","['vert', 'vert', 'vert', 'hori', 'vert', 'hori', 'hori', 'hori']","yes",109,"circles","yes",0,NA,2,"legacy",NA,1024,2,48000,-16,"experiment",7,"odd","red","no",4,"circle",382833.097300001,382859.7309,382859.7697,NA,387473.138000001,NA,NA,97348.6617999988,3986.55099999814,NA,97348.6836999982,526880.6348,529906.127900002,NA,NA,NA,NA,3986.6331000012,402289.493799999,NA,NA,526880.6491,402796.186200001,526880.584400002,"New experiment",19,"[0]","dist_present",56,54,"yes","no",1680,NA,NA,NA,NA,"NR","NR","lp","Left",NA,NA,NA,NA,NA,"practice",3,"NR","in"
"40",1503.43150000111,53053.929899994,53053.929899994,27,27,"y",5,"['5', '7', '7', 'space']","n","#000000","no",533200.337400001,1,"neutral","psycho","psycho","psycho",0,"uniform",0,0,0,0,NA,0,0,NA,0,0,0,0,39,39,NA,NA,NA,NA,0,0,0,NA,39,0,39,73.2296414732588,"Mon Aug  9 14:56:58 2021","The main experiment item","yes","red","no","None","diamond",NA,"pinging_target_expectations 3.2.osexp","C:\Users\etp-cp-ping\Desktop\LocalPC-EXP",75,"no","mono","no",18,"no","white","no","yes",1050,NA,100,"psycho",39,0,39,"C:/Users/etp-cp-ping/Desktop/LocalPC-EXP/subject-7.csv","psycho",34,40,40,"Lentiform Loewenfeld","3.3.8","['vert', 'vert', 'vert', 'hori', 'hori', 'vert', 'hori', 'hori']","yes",109,"circles","yes",0,NA,2,"legacy",NA,1024,2,48000,-16,"experiment",7,"odd","green","no",7,"circle",382833.097300001,382859.7309,382859.7697,NA,387473.138000001,NA,NA,97348.6617999988,3986.55099999814,NA,97348.6836999982,529936.903900001,533202.124899999,NA,NA,NA,NA,3986.6331000012,402289.493799999,NA,NA,529936.9181,402796.186200001,529936.8555,"New experiment",19,"[0]","dist_absent",56,89,"yes","no",1680,NA,NA,NA,NA,"NR","NR","lp",NA,"Right",NA,NA,NA,NA,"practice",4,"NR","in"
"41",2000.11040000024,55054.0402999942,55054.0402999942,27,27,"y",5,"['5', '7', '7', 'space']","n","#000000","no",537126.368199999,1,"neutral","psycho","psycho","psycho",0,"uniform",0,0,0,0,NA,0,0,NA,0,0,0,0,40,40,NA,NA,NA,NA,0,0,0,NA,40,0,40,73.2296414732588,"Mon Aug  9 14:56:58 2021","The main experiment item","yes","red","no","None","diamond",NA,"pinging_target_expectations 3.2.osexp","C:\Users\etp-cp-ping\Desktop\LocalPC-EXP",75,"no","mono","no",18,"no","white","no","yes",1050,NA,100,"psycho",40,0,40,"C:/Users/etp-cp-ping/Desktop/LocalPC-EXP/subject-7.csv","psycho",35,41,41,"Lentiform Loewenfeld","3.3.8","['hori', 'vert', 'vert', 'hori', 'hori', 'hori', 'vert', 'vert']","no",209,"None","yes",0,NA,2,"legacy",NA,1024,2,48000,-16,"experiment",7,"odd","green","no",7,"circle",382833.097300001,382859.7309,382859.7697,NA,387473.138000001,NA,NA,97348.6617999988,3986.55099999814,NA,97348.6836999982,533232.779599999,537127.493700002,NA,NA,NA,NA,3986.6331000012,402289.493799999,NA,NA,533232.7941,402796.186200001,533232.7295,"New experiment",19,"[0]","dist_absent",56,89,"yes","no",1680,NA,NA,NA,NA,"R","R","lp",NA,"Right",NA,NA,NA,NA,"practice",7,"NR","in"
"42",1548.30790000048,56602.3481999947,56602.3481999947,28,28,"y",5,"['5', '7', '7', 'space']","n","#000000","no",540608.147499999,1,"neutral","psycho","psycho","psycho",0,"uniform",1,0,0,0,NA,0,0,NA,0,0,0,0,41,41,NA,NA,NA,NA,0,0,0,NA,41,0,41,73.2296414732588,"Mon Aug  9 14:56:58 2021","The main experiment item","yes","red","no","6","diamond",NA,"pinging_target_expectations 3.2.osexp","C:\Users\etp-cp-ping\Desktop\LocalPC-EXP",75,"no","mono","no",18,"no","white","no","yes",1050,NA,100,"psycho",41,0,41,"C:/Users/etp-cp-ping/Desktop/LocalPC-EXP/subject-7.csv","psycho",36,42,42,"Lentiform Loewenfeld","3.3.8","['hori', 'vert', 'vert', 'hori', 'hori', 'vert', 'vert', 'hori']","yes",109,"diamond","yes",0,NA,2,"legacy",NA,1024,2,48000,-16,"experiment",7,"odd","green","no",5,"circle",382833.097300001,382859.7309,382859.7697,NA,387473.138000001,NA,NA,97348.6617999988,3986.55099999814,NA,97348.6836999982,537159.309800001,540610.214100001,NA,NA,NA,NA,3986.6331000012,402289.493799999,NA,NA,537159.324299999,402796.186200001,537159.2619,"New experiment",19,"[0]","dist_present",56,67,"yes","no",1680,NA,NA,NA,NA,"NR","NR","lp",NA,NA,NA,NA,NA,NA,"practice",7,"R","in"
"43",1277.29760000145,57879.6457999962,57879.6457999962,29,29,"y",5,"['5', '7', '7', 'space']","n","#000000","no",543807.933799999,1,"neutral","psycho","psycho","psycho",0,"uniform",1,0,0,0,NA,0,0,NA,0,0,0,0,42,42,NA,NA,NA,NA,0,0,0,NA,42,0,42,73.2296414732588,"Mon Aug  9 14:56:58 2021","The main experiment item","yes","green","no","None","circle",NA,"pinging_target_expectations 3.2.osexp","C:\Users\etp-cp-ping\Desktop\LocalPC-EXP",75,"no","mono","no",18,"no","white","no","yes",1050,NA,100,"psycho",42,0,42,"C:/Users/etp-cp-ping/Desktop/LocalPC-EXP/subject-7.csv","psycho",37,43,43,"Lentiform Loewenfeld","3.3.8","['hori', 'hori', 'hori', 'vert', 'vert', 'vert', 'hori', 'vert']","no",209,"None","yes",0,NA,2,"legacy",NA,1024,2,48000,-16,"experiment",7,"odd","red","no",7,"diamond",382833.097300001,382859.7309,382859.7697,NA,387473.138000001,NA,NA,97348.6617999988,3986.55099999814,NA,97348.6836999982,540641.4807,543810.187499999,NA,NA,NA,NA,3986.6331000012,402289.493799999,NA,NA,540641.495399999,402796.186200001,540641.4258,"New experiment",19,"[0]","dist_absent",56,89,"yes","no",1680,NA,NA,NA,NA,"NR","NR","lp",NA,"Right",NA,NA,NA,NA,"practice",5,"NR","in"
"44",2000.16569999931,59879.8114999955,59879.8114999955,29,29,"y",5,"['5', '7', '7', 'space']","n","#000000","no",547840.612799999,1,"neutral","psycho","psycho","psycho",0,"uniform",0,0,0,0,NA,0,0,NA,0,0,0,0,43,43,NA,NA,NA,NA,0,0,0,NA,43,0,43,73.2296414732588,"Mon Aug  9 14:56:58 2021","The main experiment item","yes","red","no","4","circle",NA,"pinging_target_expectations 3.2.osexp","C:\Users\etp-cp-ping\Desktop\LocalPC-EXP",75,"no","mono","no",18,"no","white","no","yes",1050,NA,100,"psycho",43,0,43,"C:/Users/etp-cp-ping/Desktop/LocalPC-EXP/subject-7.csv","psycho",38,44,44,"Lentiform Loewenfeld","3.3.8","['vert', 'hori', 'hori', 'vert', 'vert', 'hori', 'hori', 'vert']","no",209,"None","yes",0,NA,2,"legacy",NA,1024,2,48000,-16,"experiment",7,"odd","green","no",3,"diamond",382833.097300001,382859.7309,382859.7697,NA,387473.138000001,NA,NA,97348.6617999988,3986.55099999814,NA,97348.6836999982,543840.731199998,547841.739700001,NA,NA,NA,NA,3986.6331000012,402289.493799999,NA,NA,543840.745500001,402796.186200001,543840.680599998,"New experiment",19,"[0]","dist_present",56,45,"yes","no",1680,NA,NA,NA,NA,"NR","NR","lp",NA,"Left",NA,NA,NA,NA,"practice",7,"NR","in"
"45",1409.62570000195,61289.4371999974,61289.4371999974,30,30,"y",5,"['5', '7', '7', 'space']","n","#000000","no",551168.687000001,1,"neutral","psycho","psycho","psycho",0,"uniform",1,0,0,0,NA,0,0,NA,0,0,0,0,44,44,NA,NA,NA,NA,0,0,0,NA,44,0,44,73.2296414732588,"Mon Aug  9 14:56:58 2021","The main experiment item","yes","red","no","None","diamond",NA,"pinging_target_expectations 3.2.osexp","C:\Users\etp-cp-ping\Desktop\LocalPC-EXP",75,"no","mono","no",18,"no","white","no","yes",1050,NA,100,"psycho",44,0,44,"C:/Users/etp-cp-ping/Desktop/LocalPC-EXP/subject-7.csv","psycho",39,45,45,"Lentiform Loewenfeld","3.3.8","['hori', 'vert', 'vert', 'vert', 'vert', 'hori', 'hori', 'hori']","yes",109,"circles","yes",0,NA,2,"legacy",NA,1024,2,48000,-16,"experiment",7,"odd","green","no",2,"circle",382833.097300001,382859.7309,382859.7697,NA,387473.138000001,NA,NA,97348.6617999988,3986.55099999814,NA,97348.6836999982,547872.087799999,551170.106099999,NA,NA,NA,NA,3986.6331000012,402289.493799999,NA,NA,547872.1023,402796.186200001,547872.039099999,"New experiment",19,"[0]","dist_absent",56,39,"yes","no",1680,NA,NA,NA,NA,"NR","NR","lp",NA,"Left",NA,"Left",NA,NA,"practice",3,"NR","in"
"46",1620.17329999793,62909.6104999954,62909.6104999954,31,31,"y",5,"['5', '7', '7', 'space']","n","#000000","no",554656.145699999,1,"neutral","psycho","psycho","psycho",0,"uniform",1,0,0,0,NA,0,0,NA,0,0,0,0,45,45,NA,NA,NA,NA,0,0,0,NA,45,0,45,73.2296414732588,"Mon Aug  9 14:56:58 2021","The main experiment item","yes","red","no","5","circle",NA,"pinging_target_expectations 3.2.osexp","C:\Users\etp-cp-ping\Desktop\LocalPC-EXP",75,"no","mono","no",18,"no","white","no","yes",1050,NA,100,"psycho",45,0,45,"C:/Users/etp-cp-ping/Desktop/LocalPC-EXP/subject-7.csv","psycho",40,46,46,"Lentiform Loewenfeld","3.3.8","['hori', 'vert', 'vert', 'hori', 'hori', 'vert', 'vert', 'hori']","yes",109,"diamond","yes",0,NA,2,"legacy",NA,1024,2,48000,-16,"experiment",7,"odd","green","no",6,"diamond",382833.097300001,382859.7309,382859.7697,NA,387473.138000001,NA,NA,97348.6617999988,3986.55099999814,NA,97348.6836999982,551204.358899999,554658.123199999,NA,NA,NA,NA,3986.6331000012,402289.493799999,NA,NA,551204.373600001,402796.186200001,551204.305399999,"New experiment",19,"[0]","dist_present",56,76,"yes","no",1680,NA,NA,NA,NA,"NR","NR","lp",NA,NA,NA,NA,NA,NA,"practice",2,"NR","in"
"47",1575.782699998,64485.3931999934,64485.3931999934,32,32,"y",5,"['5', '7', '7', 'space']","n","#000000","no",558191.854799999,1,"neutral","psycho","psycho","psycho",0,"uniform",1,0,0,0,NA,0,0,NA,0,0,0,0,46,46,NA,NA,NA,NA,0,0,0,NA,46,0,46,73.2296414732588,"Mon Aug  9 14:56:58 2021","The main experiment item","yes","red","no","0","circle",NA,"pinging_target_expectations 3.2.osexp","C:\Users\etp-cp-ping\Desktop\LocalPC-EXP",75,"no","mono","no",18,"no","white","no","yes",1050,NA,100,"psycho",46,0,46,"C:/Users/etp-cp-ping/Desktop/LocalPC-EXP/subject-7.csv","psycho",41,47,47,"Lentiform Loewenfeld","3.3.8","['vert', 'vert', 'vert', 'hori', 'hori', 'hori', 'hori', 'vert']","yes",109,"circles","yes",0,NA,2,"legacy",NA,1024,2,48000,-16,"experiment",7,"odd","green","no",1,"diamond",382833.097300001,382859.7309,382859.7697,NA,387473.138000001,NA,NA,97348.6617999988,3986.55099999814,NA,97348.6836999982,554690.410499999,558194.1238,NA,NA,NA,NA,3986.6331000012,402289.493799999,NA,NA,554690.425000001,402796.186200001,554690.361199999,"New experiment",19,"[0]","dist_present",56,21,"yes","no",1680,NA,NA,NA,NA,"NR","NR","lp",NA,"Left",NA,NA,NA,NA,"practice",6,"NR","in"
"48",1750.80840000021,66236.2015999936,66236.2015999936,33,33,"y",5,"['5', '7', '7', 'space']","n","#000000","no",561808.5718,1,"neutral","psycho","psycho","psycho",0,"uniform",1,0,0,0,NA,0,0,NA,0,0,0,0,47,47,NA,NA,NA,NA,0,0,0,NA,47,0,47,73.2296414732588,"Mon Aug  9 14:56:58 2021","The main experiment item","yes","green","no","7","diamond",NA,"pinging_target_expectations 3.2.osexp","C:\Users\etp-cp-ping\Desktop\LocalPC-EXP",75,"no","mono","no",18,"no","white","no","yes",1050,NA,100,"psycho",47,0,47,"C:/Users/etp-cp-ping/Desktop/LocalPC-EXP/subject-7.csv","psycho",42,48,48,"Lentiform Loewenfeld","3.3.8","['hori', 'hori', 'vert', 'vert', 'hori', 'hori', 'vert', 'vert']","yes",109,"circles","yes",0,NA,2,"legacy",NA,1024,2,48000,-16,"experiment",7,"odd","red","no",3,"circle",382833.097300001,382859.7309,382859.7697,NA,387473.138000001,NA,NA,97348.6617999988,3986.55099999814,NA,97348.6836999982,558224.810600001,561810.264700001,NA,NA,NA,NA,3986.6331000012,402289.493799999,NA,NA,558224.825099998,402796.186200001,558224.761500001,"New experiment",19,"[0]","dist_present",56,48,"yes","no",1680,NA,NA,NA,NA,"NR","NR","lp",NA,NA,NA,NA,NA,NA,"practice",1,"NR","in"
"49",1022.114899999,67258.3164999926,67258.3164999926,34,34,"y",5,"['5', '7', '7', 'space']","n","#000000","no",564800.691100001,1,"neutral","psycho","psycho","psycho",0,"uniform",1,0,0,0,NA,0,0,NA,0,0,0,0,48,48,NA,NA,NA,NA,0,0,0,NA,48,0,48,73.2296414732588,"Mon Aug  9 14:56:58 2021","The main experiment item","yes","green","no","2","circle",NA,"pinging_target_expectations 3.2.osexp","C:\Users\etp-cp-ping\Desktop\LocalPC-EXP",75,"no","mono","no",18,"no","white","no","yes",1050,NA,100,"psycho",48,0,48,"C:/Users/etp-cp-ping/Desktop/LocalPC-EXP/subject-7.csv","psycho",43,49,49,"Lentiform Loewenfeld","3.3.8","['vert', 'hori', 'vert', 'vert', 'hori', 'hori', 'hori', 'vert']","no",209,"None","yes",0,NA,2,"legacy",NA,1024,2,48000,-16,"experiment",7,"odd","red","no",0,"diamond",382833.097300001,382859.7309,382859.7697,NA,387473.138000001,NA,NA,97348.6617999988,3986.55099999814,NA,97348.6836999982,561841.0669,564802.1118,NA,NA,NA,NA,3986.6331000012,402289.493799999,NA,NA,561841.0816,402796.186200001,561841.015999998,"New experiment",19,"[0]","dist_present",56,13,"yes","no",1680,NA,NA,NA,NA,"NR","NR","lp","Left",NA,"Left",NA,NA,NA,"practice",3,"NR","in"
"50",1761.96720000007,69020.2836999926,69020.2836999926,34,34,"y",5,"['5', '7', '7', 'space']","n","#000000","no",568464.529299999,1,"neutral","psycho","psycho","psycho",0,"uniform",0,0,0,0,NA,0,0,NA,0,0,0,0,49,49,NA,NA,NA,NA,0,0,0,NA,49,0,49,73.2296414732588,"Mon Aug  9 14:56:58 2021","The main experiment item","yes","red","no","7","diamond",NA,"pinging_target_expectations 3.2.osexp","C:\Users\etp-cp-ping\Desktop\LocalPC-EXP",75,"no","mono","no",18,"no","white","no","yes",1050,NA,100,"psycho",49,0,49,"C:/Users/etp-cp-ping/Desktop/LocalPC-EXP/subject-7.csv","psycho",44,50,50,"Lentiform Loewenfeld","3.3.8","['hori', 'vert', 'hori', 'vert', 'vert', 'vert', 'hori', 'hori']","no",209,"None","yes",0,NA,2,"legacy",NA,1024,2,48000,-16,"experiment",7,"odd","green","no",2,"circle",382833.097300001,382859.7309,382859.7697,NA,387473.138000001,NA,NA,97348.6617999988,3986.55099999814,NA,97348.6836999982,564832.735799999,568466.132999998,NA,NA,NA,NA,3986.6331000012,402289.493799999,NA,NA,564832.752099999,402796.186200001,564832.687499998,"New experiment",19,"[0]","dist_present",56,38,"yes","no",1680,NA,NA,NA,NA,"NR","NR","lp",NA,NA,NA,NA,NA,NA,"practice",0,"NR","in"
"51",2001.02300000074,71021.3066999934,71021.3066999934,34,34,"y",5,"['5', '7', '7', 'space']","n","#000000","no",572523.1977,1,"neutral","psycho","psycho","psycho",0,"uniform",0,0,0,0,NA,0,0,NA,0,0,0,0,50,50,NA,NA,NA,NA,0,0,0,NA,50,0,50,73.2296414732588,"Mon Aug  9 14:56:58 2021","The main experiment item","yes","green","no","5","diamond",NA,"pinging_target_expectations 3.2.osexp","C:\Users\etp-cp-ping\Desktop\LocalPC-EXP",75,"no","mono","no",18,"no","white","no","yes",1050,NA,100,"psycho",50,0,50,"C:/Users/etp-cp-ping/Desktop/LocalPC-EXP/subject-7.csv","psycho",45,51,51,"Lentiform Loewenfeld","3.3.8","['vert', 'hori', 'vert', 'vert', 'hori', 'hori', 'vert', 'hori']","yes",109,"diamond","yes",0,NA,2,"legacy",NA,1024,2,48000,-16,"experiment",7,"odd","red","no",1,"circle",382833.097300001,382859.7309,382859.7697,NA,387473.138000001,NA,NA,97348.6617999988,3986.55099999814,NA,97348.6836999982,568497.290300002,572524.328899999,NA,NA,NA,NA,3986.6331000012,402289.493799999,NA,NA,568497.3049,402796.186200001,568497.240299999,"New experiment",19,"[0]","dist_present",56,26,"yes","no",1680,NA,NA,NA,NA,"NR","NR","lp",NA,NA,NA,NA,NA,NA,"practice",2,"NR","in"
"52",1360.77970000042,72382.0863999938,72382.0863999938,35,35,"y",5,"['5', '7', '7', 'space']","n","#000000","no",575647.937000002,1,"neutral","psycho","psycho","psycho",0,"uniform",1,0,0,0,NA,0,0,NA,0,0,0,0,51,51,NA,NA,NA,NA,0,0,0,NA,51,0,51,73.2296414732588,"Mon Aug  9 14:56:58 2021","The main experiment item","yes","red","no","None","circle",NA,"pinging_target_expectations 3.2.osexp","C:\Users\etp-cp-ping\Desktop\LocalPC-EXP",75,"no","mono","no",18,"no","white","no","yes",1050,NA,100,"psycho",51,0,51,"C:/Users/etp-cp-ping/Desktop/LocalPC-EXP/subject-7.csv","psycho",46,52,52,"Lentiform Loewenfeld","3.3.8","['hori', 'vert', 'vert', 'hori', 'vert', 'hori', 'hori', 'vert']","no",209,"None","yes",0,NA,2,"legacy",NA,1024,2,48000,-16,"experiment",7,"odd","green","no",1,"diamond",382833.097300001,382859.7309,382859.7697,NA,387473.138000001,NA,NA,97348.6617999988,3986.55099999814,NA,97348.6836999982,572554.852099998,575650.142499999,NA,NA,NA,NA,3986.6331000012,402289.493799999,NA,NA,572554.866599999,402796.186200001,572554.802399998,"New experiment",19,"[0]","dist_absent",56,29,"yes","no",1680,NA,NA,NA,NA,"R","NR","lp",NA,"Left",NA,NA,NA,NA,"practice",1,"NR","in"
"53",1353.93069999921,73736.017099993,73736.017099993,36,36,"y",5,"['5', '7', '7', 'space']","n","#000000","no",578864.394,1,"neutral","psycho","psycho","psycho",0,"uniform",1,0,0,0,NA,0,0,NA,0,0,0,0,52,52,NA,NA,NA,NA,0,0,0,NA,52,0,52,73.2296414732588,"Mon Aug  9 14:56:58 2021","The main experiment item","yes","green","no","4","diamond",NA,"pinging_target_expectations 3.2.osexp","C:\Users\etp-cp-ping\Desktop\LocalPC-EXP",75,"no","mono","no",18,"no","white","no","yes",1050,NA,100,"psycho",52,0,52,"C:/Users/etp-cp-ping/Desktop/LocalPC-EXP/subject-7.csv","psycho",47,53,53,"Lentiform Loewenfeld","3.3.8","['vert', 'vert', 'hori', 'vert', 'hori', 'vert', 'hori', 'hori']","yes",109,"diamond","yes",0,NA,2,"legacy",NA,1024,2,48000,-16,"experiment",7,"odd","red","no",0,"circle",382833.097300001,382859.7309,382859.7697,NA,387473.138000001,NA,NA,97348.6617999988,3986.55099999814,NA,97348.6836999982,575680.6732,578866.116900001,NA,NA,NA,NA,3986.6331000012,402289.493799999,NA,NA,575680.687699998,402796.186200001,575680.6239,"New experiment",19,"[0]","dist_present",56,15,"yes","no",1680,NA,NA,NA,NA,"NR","NR","lp",NA,NA,NA,NA,NA,NA,"practice",1,"R","in"
"54",1054.38200000208,74790.3990999951,74790.3990999951,37,37,"y",5,"['5', '7', '7', 'space']","n","#000000","no",581904.053900002,1,"neutral","psycho","psycho","psycho",0,"uniform",1,0,0,0,NA,0,0,NA,0,0,0,0,53,53,NA,NA,NA,NA,0,0,0,NA,53,0,53,73.2296414732588,"Mon Aug  9 14:56:58 2021","The main experiment item","yes","green","no","7","diamond",NA,"pinging_target_expectations 3.2.osexp","C:\Users\etp-cp-ping\Desktop\LocalPC-EXP",75,"no","mono","no",18,"no","white","no","yes",1050,NA,100,"psycho",53,0,53,"C:/Users/etp-cp-ping/Desktop/LocalPC-EXP/subject-7.csv","psycho",48,54,54,"Lentiform Loewenfeld","3.3.8","['vert', 'vert', 'vert', 'hori', 'hori', 'hori', 'hori', 'vert']","yes",109,"diamond","yes",0,NA,2,"legacy",NA,1024,2,48000,-16,"experiment",7,"odd","red","no",6,"circle",382833.097300001,382859.7309,382859.7697,NA,387473.138000001,NA,NA,97348.6617999988,3986.55099999814,NA,97348.6836999982,578896.793100001,581906.083999998,NA,NA,NA,NA,3986.6331000012,402289.493799999,NA,NA,578896.807599998,402796.186200001,578896.7428,"New experiment",19,"[0]","dist_present",56,78,"yes","no",1680,NA,NA,NA,NA,"NR","NR","lp",NA,NA,NA,NA,NA,NA,"practice",0,"NR","in"
"55",1203.8126999978,75994.2117999929,75994.2117999929,38,38,"y",5,"['5', '7', '7', 'space']","n","#000000","no",585008.500600001,1,"neutral","psycho","psycho","psycho",0,"uniform",1,0,0,0,NA,0,0,NA,0,0,0,0,54,54,NA,NA,NA,NA,0,0,0,NA,54,0,54,73.2296414732588,"Mon Aug  9 14:56:58 2021","The main experiment item","yes","red","no","None","circle",NA,"pinging_target_expectations 3.2.osexp","C:\Users\etp-cp-ping\Desktop\LocalPC-EXP",75,"no","mono","no",18,"no","white","no","yes",1050,NA,100,"psycho",54,0,54,"C:/Users/etp-cp-ping/Desktop/LocalPC-EXP/subject-7.csv","psycho",49,55,55,"Lentiform Loewenfeld","3.3.8","['vert', 'hori', 'vert', 'hori', 'hori', 'vert', 'vert', 'hori']","no",209,"None","yes",0,NA,2,"legacy",NA,1024,2,48000,-16,"experiment",7,"odd","green","no",4,"diamond",382833.097300001,382859.7309,382859.7697,NA,387473.138000001,NA,NA,97348.6617999988,3986.55099999814,NA,97348.6836999982,581936.668800001,585010.118900002,NA,NA,NA,NA,3986.6331000012,402289.493799999,NA,NA,581936.6835,402796.186200001,581936.618100001,"New experiment",19,"[0]","dist_absent",56,59,"yes","no",1680,NA,NA,NA,NA,"NR","NR","lp",NA,NA,NA,NA,NA,NA,"practice",6,"NR","in"
"56",1798.32109999924,77792.5328999921,77792.5328999921,39,39,"y",5,"['5', '7', '7', 'space']","n","#000000","no",588576.427,1,"neutral","psycho","psycho","psycho",0,"uniform",1,0,0,0,NA,0,0,NA,0,0,0,0,55,55,NA,NA,NA,NA,0,0,0,NA,55,0,55,73.2296414732588,"Mon Aug  9 14:56:58 2021","The main experiment item","yes","green","no","6","diamond",NA,"pinging_target_expectations 3.2.osexp","C:\Users\etp-cp-ping\Desktop\LocalPC-EXP",75,"no","mono","no",18,"no","white","no","yes",1050,NA,100,"psycho",55,0,55,"C:/Users/etp-cp-ping/Desktop/LocalPC-EXP/subject-7.csv","psycho",50,56,56,"Lentiform Loewenfeld","3.3.8","['vert', 'hori', 'vert', 'vert', 'vert', 'hori', 'hori', 'hori']","no",209,"None","yes",0,NA,2,"legacy",NA,1024,2,48000,-16,"experiment",7,"odd","red","no",5,"circle",382833.097300001,382859.7309,382859.7697,NA,387473.138000001,NA,NA,97348.6617999988,3986.55099999814,NA,97348.6836999982,585040.955100001,588578.124799998,NA,NA,NA,NA,3986.6331000012,402289.493799999,NA,NA,585040.970499998,402796.186200001,585040.904900001,"New experiment",19,"[0]","dist_present",56,67,"yes","no",1680,NA,NA,NA,NA,"NR","NR","lp",NA,NA,NA,NA,NA,NA,"practice",4,"NR","in"
"57",1737.79830000061,1737.79830000061,79530.3311999927,0,39,"y",5,"['5', '7', '7', 'space']","n","#000000","no",729883.060100001,2,"bias","psycho","psycho","psycho",0,"uniform",0,0,1,1,NA,1,0,NA,0,0,1,0,56,56,NA,NA,NA,NA,0,1,1,NA,56,1,56,73.2296414732588,"Mon Aug  9 14:56:58 2021","The main experiment item","yes","red","no","None","diamond",NA,"pinging_target_expectations 3.2.osexp","C:\Users\etp-cp-ping\Desktop\LocalPC-EXP",75,"no","mono","no",18,"no","white","no","yes",1050,NA,2,"psycho",0,1,0,"C:/Users/etp-cp-ping/Desktop/LocalPC-EXP/subject-7.csv","psycho",1,57,1,"Lentiform Loewenfeld","3.3.8","['vert', 'hori', 'vert', 'vert', 'vert', 'hori', 'hori', 'hori']","no",202,"None","no",0,NA,2,"legacy",NA,1024,2,48000,-16,"experiment",7,"odd","green","no",7,"circle",382833.097300001,648713.9484,648714.086299999,NA,656677.9876,NA,NA,97348.6617999988,3986.55099999814,589121.673999998,97348.6836999982,728842.332200002,732402.028600001,NA,NA,NA,NA,3986.6331000012,728355.407200001,588608.066500001,NA,728842.349300001,728837.9891,728842.2593,"New experiment",19,"[0]","dist_absent",56,89,"yes","yes",1680,7.37779217065255,19.4252045643284,"more toward","True","NR","NR","lp",NA,"Right",NA,NA,3,NA,"first",999,"NR","in"
"58",2000.27300000156,3738.07130000216,81530.6041999943,0,39,"y",5,"['5', '7', '7', 'space']","n","#000000","no",734341.1562,2,"bias","psycho","psycho","psycho",0,"uniform",0,0,1,1,NA,1,0,NA,0,0,1,0,57,57,NA,NA,NA,NA,0,1,1,NA,57,1,57,73.2296414732588,"Mon Aug  9 14:56:58 2021","The main experiment item","yes","green","no","3","diamond",NA,"pinging_target_expectations 3.2.osexp","C:\Users\etp-cp-ping\Desktop\LocalPC-EXP",75,"no","mono","no",18,"no","white","no","yes",1050,NA,2,"psycho",1,1,1,"C:/Users/etp-cp-ping/Desktop/LocalPC-EXP/subject-7.csv","psycho",4,58,2,"Lentiform Loewenfeld","3.3.8","['hori', 'vert', 'vert', 'vert', 'hori', 'vert', 'hori', 'hori']","no",202,"None","no",0,NA,2,"legacy",NA,1024,2,48000,-16,"experiment",7,"odd","red","no",0,"circle",382833.097300001,648713.9484,648714.086299999,NA,656677.9876,NA,NA,97348.6617999988,3986.55099999814,589121.673999998,97348.6836999982,732435.038899999,736410.883,NA,NA,NA,NA,3986.6331000012,728355.407200001,588608.066500001,NA,732435.054000001,728837.9891,732434.990999998,"New experiment",19,"[0]","dist_present",56,14,"yes","yes",1680,1.34462321917171,3.27136560863661,"more toward","True","NR","NR","lp","Left",NA,NA,NA,2,-1,"first",7,"NR","in"
"59",1452.56449999951,5190.63580000168,82983.1686999938,1,40,"y",5,"['5', '7', '7', 'space']","n","#000000","no",737515.191099999,2,"bias","psycho","psycho","psycho",0,"uniform",1,0,1,1,NA,1,0,NA,0,0,1,0,58,58,NA,NA,NA,NA,0,1,1,NA,58,1,58,73.2296414732588,"Mon Aug  9 14:56:58 2021","The main experiment item","yes","red","no","4","circle",NA,"pinging_target_expectations 3.2.osexp","C:\Users\etp-cp-ping\Desktop\LocalPC-EXP",75,"no","mono","no",18,"no","white","no","yes",1050,NA,2,"psycho",2,1,2,"C:/Users/etp-cp-ping/Desktop/LocalPC-EXP/subject-7.csv","psycho",6,59,3,"Lentiform Loewenfeld","3.3.8","['vert', 'hori', 'hori', 'hori', 'vert', 'vert', 'vert', 'hori']","no",202,"None","no",0,NA,2,"legacy",NA,1024,2,48000,-16,"experiment",7,"odd","green","yes",2,"diamond",382833.097300001,648713.9484,648714.086299999,NA,656677.9876,NA,NA,97348.6617999988,3986.55099999814,589121.673999998,97348.6836999982,736441.4019,739618.058600001,NA,NA,NA,NA,3986.6331000012,728355.407200001,588608.066500001,NA,736441.416199999,728837.9891,736441.3508,"New experiment",19,"[0]","dist_present",56,35,"yes","yes",1680,4.99800580121101,18.0143024396331,"more toward","True","NR","NR","lp",NA,"Left",NA,"Left",0,-2,"first",0,"NR","ex"
"60",999.265099999378,6189.90090000106,83982.4337999932,2,41,"y",5,"['5', '7', '7', 'space']","n","#000000","no",740281.2142,2,"bias","psycho","psycho","psycho",0,"uniform",1,0,1,1,NA,1,0,NA,0,0,1,0,59,59,NA,NA,NA,NA,0,1,1,NA,59,1,59,73.2296414732588,"Mon Aug  9 14:56:58 2021","The main experiment item","yes","green","no","1","diamond",NA,"pinging_target_expectations 3.2.osexp","C:\Users\etp-cp-ping\Desktop\LocalPC-EXP",75,"no","mono","no",18,"no","white","no","yes",1050,NA,2,"psycho",3,1,3,"C:/Users/etp-cp-ping/Desktop/LocalPC-EXP/subject-7.csv","psycho",7,60,4,"Lentiform Loewenfeld","3.3.8","['vert', 'hori', 'hori', 'vert', 'vert', 'hori', 'vert', 'hori']","no",202,"None","no",0,NA,2,"legacy",NA,1024,2,48000,-16,"experiment",7,"odd","red","no",6,"circle",382833.097300001,648713.9484,648714.086299999,NA,656677.9876,NA,NA,97348.6617999988,3986.55099999814,589121.673999998,97348.6836999982,739650.5765,742482.045600002,NA,NA,NA,NA,3986.6331000012,728355.407200001,588608.066500001,NA,739650.591000001,728837.9891,739650.5277,"New experiment",19,"[0]","dist_present",56,72,"yes","yes",1680,-2.44143275097754,14.0339514295321,"more toward","False","NR","NR","hp",NA,NA,NA,NA,4,1,"first",2,"NR","in"
"61",1307.7883000006,7497.68920000165,85290.2220999938,3,42,"y",5,"['5', '7', '7', 'space']","n","#000000","no",743321.300799998,2,"bias","psycho","psycho","psycho",0,"uniform",1,0,1,1,NA,1,0,NA,0,0,1,0,60,60,NA,NA,NA,NA,0,1,1,NA,60,1,60,73.2296414732588,"Mon Aug  9 14:56:58 2021","The main experiment item","yes","green","no","7","diamond",NA,"pinging_target_expectations 3.2.osexp","C:\Users\etp-cp-ping\Desktop\LocalPC-EXP",75,"no","mono","no",18,"no","white","no","yes",1050,NA,2,"psycho",4,1,4,"C:/Users/etp-cp-ping/Desktop/LocalPC-EXP/subject-7.csv","psycho",8,61,5,"Lentiform Loewenfeld","3.3.8","['vert', 'vert', 'hori', 'vert', 'hori', 'hori', 'vert', 'hori']","yes",102,"diamond","no",0,NA,2,"legacy",NA,1024,2,48000,-16,"experiment",7,"odd","red","no",5,"circle",382833.097300001,648713.9484,648714.086299999,NA,656677.9876,NA,NA,97348.6617999988,3986.55099999814,589121.673999998,97348.6836999982,742513.138999999,745953.9707,NA,NA,NA,NA,3986.6331000012,728355.407200001,588608.066500001,NA,742513.153899999,728837.9891,742513.089600001,"New experiment",19,"[0]","dist_present",56,68,"yes","yes",1680,43.9598172490224,18.5159514295321,"more toward","False","NR","NR","lp",NA,NA,NA,NA,-3,3,"first",6,"NR","in"
"62",1449.65790000069,8947.34710000234,86739.8799999945,4,43,"y",5,"['5', '7', '7', 'space']","n","#000000","no",746383.3381,2,"bias","psycho","psycho","psycho",0,"uniform",1,0,1,1,NA,1,0,NA,0,0,1,0,61,61,NA,NA,NA,NA,0,1,1,NA,61,1,61,73.2296414732588,"Mon Aug  9 14:56:58 2021","The main experiment item","yes","green","yes","2","diamond",NA,"pinging_target_expectations 3.2.osexp","C:\Users\etp-cp-ping\Desktop\LocalPC-EXP",75,"no","mono","no",18,"no","white","no","yes",1050,NA,2,"psycho",5,1,5,"C:/Users/etp-cp-ping/Desktop/LocalPC-EXP/subject-7.csv","psycho",9,62,6,"Lentiform Loewenfeld","3.3.8","['hori', 'vert', 'vert', 'hori', 'vert', 'hori', 'vert', 'hori']","no",202,"None","no",0,NA,2,"legacy",NA,1024,2,48000,-16,"experiment",7,"odd","red","no",4,"circle",382833.097300001,648713.9484,648714.086299999,NA,656677.9876,NA,NA,97348.6617999988,3986.55099999814,589121.673999998,97348.6836999982,745984.740200001,749378.132499998,NA,NA,NA,NA,3986.6331000012,728355.407200001,588608.066500001,NA,745984.754699999,728837.9891,745984.690599998,"New experiment",19,"[0]","dist_present",56,53,"yes","yes",1680,6.49031724902246,20.4577014295321,"more toward","False","NR","NR","lp","Left",NA,"Left",NA,-2,0,"first",5,"NR","in"
"63",829.166400002548,9776.51350000489,87569.046399997,5,44,"y",5,"['5', '7', '7', 'space']","n","#000000","no",751343.3945,2,"bias","psycho","psycho","psycho",0,"uniform",1,0,1,1,NA,1,0,NA,0,0,1,0,62,62,NA,NA,NA,NA,0,1,1,NA,62,1,62,73.2296414732588,"Mon Aug  9 14:56:58 2021","The main experiment item","yes","green","no","5","diamond",NA,"pinging_target_expectations 3.2.osexp","C:\Users\etp-cp-ping\Desktop\LocalPC-EXP",75,"no","mono","no",18,"no","white","no","yes",1050,NA,2,"psycho",6,1,6,"C:/Users/etp-cp-ping/Desktop/LocalPC-EXP/subject-7.csv","psycho",11,63,7,"Lentiform Loewenfeld","3.3.8","['hori', 'hori', 'hori', 'vert', 'hori', 'vert', 'vert', 'vert']","yes",102,"circles","no",0,NA,2,"legacy",NA,1024,2,48000,-16,"experiment",7,"odd","red","no",3,"circle",382833.097300001,648713.9484,648714.086299999,NA,656677.9876,NA,NA,97348.6617999988,3986.55099999814,589121.673999998,97348.6836999982,749410.6866,752241.969499999,NA,NA,NA,NA,3986.6331000012,728355.407200001,588608.066500001,NA,749410.701000001,728837.9891,749410.636799999,"New experiment",19,"[0]","dist_present",56,46,"yes","yes",1680,-3.14441263603502,18.5837991306816,"more toward","True","NR","NR","lp",NA,NA,NA,NA,-1,-3,"first",4,"NR","in"
"64",1227.90890000027,11004.4224000052,88796.9552999973,6,45,"y",5,"['5', '7', '7', 'space']","n","#000000","no",751343.3945,2,"bias","psycho","psycho","psycho",0,"uniform",1,0,1,1,NA,1,0,NA,0,0,1,0,63,63,NA,NA,NA,NA,0,1,1,NA,63,1,63,73.2296414732588,"Mon Aug  9 14:56:58 2021","The main experiment item","yes","red","no","0","diamond",NA,"pinging_target_expectations 3.2.osexp","C:\Users\etp-cp-ping\Desktop\LocalPC-EXP",75,"no","mono","no",18,"no","white","no","yes",1050,NA,2,"psycho",7,1,7,"C:/Users/etp-cp-ping/Desktop/LocalPC-EXP/subject-7.csv","psycho",11,64,8,"Lentiform Loewenfeld","3.3.8","['vert', 'hori', 'vert', 'vert', 'hori', 'hori', 'hori', 'vert']","yes",102,"diamond","no",0,NA,2,"legacy",NA,1024,2,48000,-16,"experiment",7,"odd","green","yes",2,"circle",382833.097300001,648713.9484,648714.086299999,NA,656677.9876,NA,NA,97348.6617999988,3986.55099999814,589121.673999998,97348.6836999982,752272.908300001,755474.064499998,NA,NA,NA,NA,3986.6331000012,728355.407200001,588608.066500001,NA,752272.922799999,728837.9891,752272.859500001,"New experiment",19,"[0]","dist_present",56,31,"yes","yes",1680,9.15556724902246,22.4922014295321,"more toward","False","NR","NR","lp",NA,"Left",NA,"Left",0,2,"first",3,"NR","ex"
"65",943.591499999515,11948.0139000047,89740.5467999968,7,46,"y",5,"['5', '7', '7', 'space']","n","#000000","no",751343.3945,2,"bias","psycho","psycho","psycho",0,"uniform",1,0,1,1,NA,1,0,NA,0,0,1,0,64,64,NA,NA,NA,NA,0,1,1,NA,64,1,64,73.2296414732588,"Mon Aug  9 14:56:58 2021","The main experiment item","yes","red","yes","2","circle",NA,"pinging_target_expectations 3.2.osexp","C:\Users\etp-cp-ping\Desktop\LocalPC-EXP",75,"no","mono","no",18,"no","white","no","yes",1050,NA,2,"psycho",8,1,8,"C:/Users/etp-cp-ping/Desktop/LocalPC-EXP/subject-7.csv","psycho",11,65,9,"Lentiform Loewenfeld","3.3.8","['hori', 'hori', 'vert', 'hori', 'vert', 'vert', 'hori', 'vert']","yes",102,"circles","no",0,NA,2,"legacy",NA,1024,2,48000,-16,"experiment",7,"odd","green","no",6,"diamond",382833.097300001,648713.9484,648714.086299999,NA,656677.9876,NA,NA,97348.6617999988,3986.55099999814,589121.673999998,97348.6836999982,755504.922200002,758449.960499998,NA,NA,NA,NA,3986.6331000012,728355.407200001,588608.066500001,NA,755504.936699999,728837.9891,755504.872599999,"New experiment",19,"[0]","dist_present",56,73,"yes","yes",1680,8.80681724902246,-43.1895485704679,"more toward","False","NR","NR","hp",NA,NA,NA,NA,4,0,"first",2,"NR","in"
"66",1589.19690000033,13537.210800005,91329.7436999971,8,47,"y",5,"['5', '7', '7', 'space']","n","#000000","no",760433.527099998,2,"bias","psycho","psycho","psycho",0,"uniform",1,0,1,1,NA,1,0,NA,0,0,1,0,65,65,NA,NA,NA,NA,0,1,1,NA,65,1,65,73.2296414732588,"Mon Aug  9 14:56:58 2021","The main experiment item","yes","red","no","0","diamond",NA,"pinging_target_expectations 3.2.osexp","C:\Users\etp-cp-ping\Desktop\LocalPC-EXP",75,"no","mono","no",18,"no","white","no","yes",1050,NA,2,"psycho",9,1,9,"C:/Users/etp-cp-ping/Desktop/LocalPC-EXP/subject-7.csv","psycho",13,66,10,"Lentiform Loewenfeld","3.3.8","['vert', 'hori', 'vert', 'hori', 'vert', 'vert', 'hori', 'hori']","yes",102,"diamond","no",0,NA,2,"legacy",NA,1024,2,48000,-16,"experiment",7,"odd","green","no",5,"circle",382833.097300001,648713.9484,648714.086299999,NA,656677.9876,NA,NA,97348.6617999988,3986.55099999814,589121.673999998,97348.6836999982,758480.7698,762129.991900001,NA,NA,NA,NA,3986.6331000012,728355.407200001,588608.066500001,NA,758480.7845,728837.9891,758480.718899998,"New experiment",19,"[0]","dist_present",56,61,"yes","yes",1680,20.5326511048218,11.6161136552375,"more toward","True","NR","NR","lp",NA,"Right",NA,NA,-3,2,"first",6,"NR","in"
"67",1237.60480000055,14774.8156000056,92567.3484999977,9,48,"y",5,"['5', '7', '7', 'space']","n","#000000","no",760433.527099998,2,"bias","psycho","psycho","psycho",0,"uniform",1,0,1,1,NA,1,0,NA,0,0,1,0,66,66,NA,NA,NA,NA,0,1,1,NA,66,1,66,73.2296414732588,"Mon Aug  9 14:56:58 2021","The main experiment item","yes","red","no","3","circle",NA,"pinging_target_expectations 3.2.osexp","C:\Users\etp-cp-ping\Desktop\LocalPC-EXP",75,"no","mono","no",18,"no","white","no","yes",1050,NA,2,"psycho",10,1,10,"C:/Users/etp-cp-ping/Desktop/LocalPC-EXP/subject-7.csv","psycho",13,67,11,"Lentiform Loewenfeld","3.3.8","['hori', 'vert', 'vert', 'hori', 'vert', 'vert', 'hori', 'hori']","no",202,"None","no",0,NA,2,"legacy",NA,1024,2,48000,-16,"experiment",7,"odd","green","yes",2,"diamond",382833.097300001,648713.9484,648714.086299999,NA,656677.9876,NA,NA,97348.6617999988,3986.55099999814,589121.673999998,97348.6836999982,762160.544599999,765106.0129,NA,NA,NA,NA,3986.6331000012,728355.407200001,588608.066500001,NA,762160.558700001,728837.9891,762160.494299998,"New experiment",19,"[0]","dist_present",56,34,"yes","yes",1680,16.0175672490225,18.8157014295321,"more toward","False","NR","NR","lp",NA,NA,NA,NA,0,-1,"first",5,"NR","ex"
"68",1908.65090000082,16683.4665000064,94475.9993999985,10,49,"y",5,"['5', '7', '7', 'space']","n","#000000","no",767073.109199999,2,"bias","psycho","psycho","psycho",0,"uniform",1,0,1,1,NA,1,0,NA,0,0,1,0,67,67,NA,NA,NA,NA,0,1,1,NA,67,1,67,73.2296414732588,"Mon Aug  9 14:56:58 2021","The main experiment item","yes","red","no","0","diamond",NA,"pinging_target_expectations 3.2.osexp","C:\Users\etp-cp-ping\Desktop\LocalPC-EXP",75,"no","mono","no",18,"no","white","no","yes",1050,NA,2,"psycho",11,1,11,"C:/Users/etp-cp-ping/Desktop/LocalPC-EXP/subject-7.csv","psycho",14,68,12,"Lentiform Loewenfeld","3.3.8","['hori', 'vert', 'vert', 'vert', 'hori', 'hori', 'vert', 'hori']","yes",102,"diamond","no",0,NA,2,"legacy",NA,1024,2,48000,-16,"experiment",7,"odd","green","no",3,"circle",382833.097300001,648713.9484,648714.086299999,NA,656677.9876,NA,NA,97348.6617999988,3986.55099999814,589121.673999998,97348.6836999982,765137.0413,768946.035000001,NA,NA,NA,NA,3986.6331000012,728355.407200001,588608.066500001,NA,765137.0556,728837.9891,765136.992399999,"New experiment",19,"[0]","dist_present",56,41,"yes","yes",1680,12.8485720699591,20.8747248455101,"more toward","True","NR","NR","hp",NA,"Left",NA,NA,-1,2,"first",2,"NR","in"
"69",1133.97769999946,17817.4442000058,95609.977099998,11,50,"y",5,"['5', '7', '7', 'space']","n","#000000","no",769475.670799999,2,"bias","psycho","psycho","psycho",0,"uniform",1,0,1,1,NA,1,0,NA,0,0,1,0,68,68,NA,NA,NA,NA,0,1,1,NA,68,1,68,73.2296414732588,"Mon Aug  9 14:56:58 2021","The main experiment item","yes","green","no","None","diamond",NA,"pinging_target_expectations 3.2.osexp","C:\Users\etp-cp-ping\Desktop\LocalPC-EXP",75,"no","mono","no",18,"no","white","no","yes",1050,NA,2,"psycho",12,1,12,"C:/Users/etp-cp-ping/Desktop/LocalPC-EXP/subject-7.csv","psycho",15,69,13,"Lentiform Loewenfeld","3.3.8","['vert', 'hori', 'vert', 'hori', 'hori', 'hori', 'vert', 'vert']","no",202,"None","no",0,NA,2,"legacy",NA,1024,2,48000,-16,"experiment",7,"odd","red","yes",2,"circle",382833.097300001,648713.9484,648714.086299999,NA,656677.9876,NA,NA,97348.6617999988,3986.55099999814,589121.673999998,97348.6836999982,768978.508600001,772114.0767,NA,NA,NA,NA,3986.6331000012,728355.407200001,588608.066500001,NA,768978.523099999,728837.9891,768978.458400001,"New experiment",19,"[0]","dist_absent",56,39,"yes","yes",1680,10.9483172490225,13.9739514295321,"more toward","False","NR","NR","lp",NA,"Left",NA,"Left",0,NA,"first",3,"NR","ex"
"70",2000.85860000027,19818.3028000061,97610.8356999982,11,50,"y",5,"['5', '7', '7', 'space']","n","#000000","no",772429.7157,2,"bias","psycho","psycho","psycho",0,"uniform",0,0,1,1,NA,1,0,NA,0,0,1,0,69,69,NA,NA,NA,NA,0,1,1,NA,69,1,69,73.2296414732588,"Mon Aug  9 14:56:58 2021","The main experiment item","yes","red","no","None","diamond",NA,"pinging_target_expectations 3.2.osexp","C:\Users\etp-cp-ping\Desktop\LocalPC-EXP",75,"no","mono","no",18,"no","white","no","yes",1050,NA,2,"psycho",13,1,13,"C:/Users/etp-cp-ping/Desktop/LocalPC-EXP/subject-7.csv","psycho",16,70,14,"Lentiform Loewenfeld","3.3.8","['hori', 'hori', 'hori', 'vert', 'hori', 'vert', 'vert', 'vert']","no",202,"None","no",0,NA,2,"legacy",NA,1024,2,48000,-16,"experiment",7,"odd","green","no",4,"circle",382833.097300001,648713.9484,648714.086299999,NA,656677.9876,NA,NA,97348.6617999988,3986.55099999814,589121.673999998,97348.6836999982,772144.769499999,775963.859200001,NA,NA,NA,NA,3986.6331000012,728355.407200001,588608.066500001,NA,772144.784100001,728837.9891,772144.719299999,"New experiment",19,"[0]","dist_absent",56,59,"yes","yes",1680,-0.397182750977544,18.8214514295321,"more toward","False","NR","R","hp",NA,NA,NA,NA,-2,NA,"first",2,"NR","in"
"71",1307.57129999984,21125.874100006,98918.4069999981,12,51,"y",5,"['5', '7', '7', 'space']","n","#000000","no",777631.757399999,2,"bias","psycho","psycho","psycho",0,"uniform",1,0,1,1,NA,1,0,NA,0,0,1,0,70,70,NA,NA,NA,NA,0,1,1,NA,70,1,70,73.2296414732588,"Mon Aug  9 14:56:58 2021","The main experiment item","yes","red","no","7","diamond",NA,"pinging_target_expectations 3.2.osexp","C:\Users\etp-cp-ping\Desktop\LocalPC-EXP",75,"no","mono","no",18,"no","white","no","yes",1050,NA,2,"psycho",14,1,14,"C:/Users/etp-cp-ping/Desktop/LocalPC-EXP/subject-7.csv","psycho",19,71,15,"Lentiform Loewenfeld","3.3.8","['hori', 'vert', 'vert', 'hori', 'hori', 'hori', 'vert', 'vert']","no",202,"None","no",0,NA,2,"legacy",NA,1024,2,48000,-16,"experiment",7,"odd","green","yes",2,"circle",382833.097300001,648713.9484,648714.086299999,NA,656677.9876,NA,NA,97348.6617999988,3986.55099999814,589121.673999998,97348.6836999982,775994.396599999,779186.064699999,NA,NA,NA,NA,3986.6331000012,728355.407200001,588608.066500001,NA,775994.4111,728837.9891,775994.348,"New experiment",19,"[0]","dist_present",56,38,"yes","yes",1680,5.41577240597313,14.0638426851375,"more toward","True","NR","NR","lp",NA,NA,NA,NA,0,3,"first",4,"NR","ex"
"72",953.194199999329,22079.0683000053,99871.6011999974,13,52,"y",5,"['5', '7', '7', 'space']","n","#000000","no",780957.824900001,2,"bias","psycho","psycho","psycho",0,"uniform",1,0,1,1,NA,1,0,NA,0,0,1,0,71,71,NA,NA,NA,NA,0,1,1,NA,71,1,71,73.2296414732588,"Mon Aug  9 14:56:58 2021","The main experiment item","yes","green","no","None","circle",NA,"pinging_target_expectations 3.2.osexp","C:\Users\etp-cp-ping\Desktop\LocalPC-EXP",75,"no","mono","no",18,"no","white","no","yes",1050,NA,2,"psycho",15,1,15,"C:/Users/etp-cp-ping/Desktop/LocalPC-EXP/subject-7.csv","psycho",21,72,16,"Lentiform Loewenfeld","3.3.8","['vert', 'hori', 'vert', 'hori', 'vert', 'hori', 'hori', 'vert']","yes",102,"diamond","no",0,NA,2,"legacy",NA,1024,2,48000,-16,"experiment",7,"odd","red","yes",2,"diamond",382833.097300001,648713.9484,648714.086299999,NA,656677.9876,NA,NA,97348.6617999988,3986.55099999814,589121.673999998,97348.6836999982,779216.8662,782113.970499999,NA,NA,NA,NA,3986.6331000012,728355.407200001,588608.066500001,NA,779216.880700002,728837.9891,779216.815899999,"New experiment",19,"[0]","dist_absent",56,39,"yes","yes",1680,1.52763543084064,11.4171884425191,"more toward","True","R","NR","hp",NA,"Left",NA,"Left",0,NA,"first",2,"NR","ex"
"73",855.83939999924,22934.9077000045,100727.440599997,14,53,"y",5,"['5', '7', '7', 'space']","n","#000000","no",780957.824900001,2,"bias","psycho","psycho","psycho",0,"uniform",1,0,1,1,NA,1,0,NA,0,0,1,0,72,72,NA,NA,NA,NA,0,1,1,NA,72,1,72,73.2296414732588,"Mon Aug  9 14:56:58 2021","The main experiment item","yes","green","no","None","circle",NA,"pinging_target_expectations 3.2.osexp","C:\Users\etp-cp-ping\Desktop\LocalPC-EXP",75,"no","mono","no",18,"no","white","no","yes",1050,NA,2,"psycho",16,1,16,"C:/Users/etp-cp-ping/Desktop/LocalPC-EXP/subject-7.csv","psycho",21,73,17,"Lentiform Loewenfeld","3.3.8","['vert', 'hori', 'hori', 'vert', 'vert', 'vert', 'hori', 'hori']","yes",102,"circles","no",0,NA,2,"legacy",NA,1024,2,48000,-16,"experiment",7,"odd","red","yes",2,"diamond",382833.097300001,648713.9484,648714.086299999,NA,656677.9876,NA,NA,97348.6617999988,3986.55099999814,589121.673999998,97348.6836999982,782144.829000001,784977.963500001,NA,NA,NA,NA,3986.6331000012,728355.407200001,588608.066500001,NA,782144.844099999,728837.9891,782144.778900001,"New experiment",19,"[0]","dist_absent",56,39,"yes","yes",1680,2.86431724902245,11.6199514295321,"more toward","False","R","R","hp",NA,"Left",NA,"Left",0,NA,"first",2,"R","ex"
"74",2000.18780000031,24935.0955000048,102727.628399997,14,53,"y",5,"['5', '7', '7', 'space']","n","#000000","no",785353.912499999,2,"bias","psycho","psycho","psycho",0,"uniform",0,0,1,1,NA,1,0,NA,0,0,1,0,73,73,NA,NA,NA,NA,0,1,1,NA,73,1,73,73.2296414732588,"Mon Aug  9 14:56:58 2021","The main experiment item","yes","green","no","None","circle",NA,"pinging_target_expectations 3.2.osexp","C:\Users\etp-cp-ping\Desktop\LocalPC-EXP",75,"no","mono","no",18,"no","white","no","yes",1050,NA,2,"psycho",17,1,17,"C:/Users/etp-cp-ping/Desktop/LocalPC-EXP/subject-7.csv","psycho",22,74,18,"Lentiform Loewenfeld","3.3.8","['hori', 'hori', 'hori', 'vert', 'hori', 'vert', 'vert', 'vert']","yes",102,"circles","no",0,NA,2,"legacy",NA,1024,2,48000,-16,"experiment",7,"odd","red","no",1,"diamond",382833.097300001,648713.9484,648714.086299999,NA,656677.9876,NA,NA,97348.6617999988,3986.55099999814,589121.673999998,97348.6836999982,785008.593800001,788811.5272,NA,NA,NA,NA,3986.6331000012,728355.407200001,588608.066500001,NA,785008.608699998,728837.9891,785008.541499999,"New experiment",19,"[0]","dist_absent",56,29,"yes","yes",1680,1.29606724902245,15.0367014295321,"more toward","False","NR","R","hp",NA,"Left",NA,NA,1,NA,"first",2,"R","in"
"75",997.331699996721,25932.4272000015,103724.960099994,15,54,"y",5,"['5', '7', '7', 'space']","n","#000000","no",785353.912499999,2,"bias","psycho","psycho","psycho",0,"uniform",1,0,1,1,NA,1,0,NA,0,0,1,0,74,74,NA,NA,NA,NA,0,1,1,NA,74,1,74,73.2296414732588,"Mon Aug  9 14:56:58 2021","The main experiment item","yes","green","no","7","circle",NA,"pinging_target_expectations 3.2.osexp","C:\Users\etp-cp-ping\Desktop\LocalPC-EXP",75,"no","mono","no",18,"no","white","no","yes",1050,NA,2,"psycho",18,1,18,"C:/Users/etp-cp-ping/Desktop/LocalPC-EXP/subject-7.csv","psycho",22,75,19,"Lentiform Loewenfeld","3.3.8","['vert', 'hori', 'hori', 'hori', 'vert', 'hori', 'vert', 'vert']","no",202,"None","no",0,NA,2,"legacy",NA,1024,2,48000,-16,"experiment",7,"odd","red","no",1,"diamond",382833.097300001,648713.9484,648714.086299999,NA,656677.9876,NA,NA,97348.6617999988,3986.55099999814,589121.673999998,97348.6836999982,788842.180899999,791777.9711,NA,NA,NA,NA,3986.6331000012,728355.407200001,588608.066500001,NA,788842.195400001,728837.9891,788842.1323,"New experiment",19,"[0]","dist_present",56,28,"yes","yes",1680,-9.74418275097754,0.704701429532134,"more away","False","R","NR","lp",NA,NA,NA,NA,1,3,"first",1,"NR","in"
"76",1475.9450999992,27408.3723000007,105200.905199993,15,54,"y",5,"['5', '7', '7', 'space']","n","#000000","no",785353.912499999,2,"bias","psycho","psycho","psycho",0,"uniform",0,0,1,1,NA,1,0,NA,0,0,1,0,75,75,NA,NA,NA,NA,0,1,1,NA,75,1,75,73.2296414732588,"Mon Aug  9 14:56:58 2021","The main experiment item","yes","red","no","1","diamond",NA,"pinging_target_expectations 3.2.osexp","C:\Users\etp-cp-ping\Desktop\LocalPC-EXP",75,"no","mono","no",18,"no","white","no","yes",1050,NA,2,"psycho",19,1,19,"C:/Users/etp-cp-ping/Desktop/LocalPC-EXP/subject-7.csv","psycho",22,76,20,"Lentiform Loewenfeld","3.3.8","['vert', 'hori', 'hori', 'vert', 'vert', 'hori', 'hori', 'vert']","no",202,"None","no",0,NA,2,"legacy",NA,1024,2,48000,-16,"experiment",7,"odd","green","yes",2,"circle",382833.097300001,648713.9484,648714.086299999,NA,656677.9876,NA,NA,97348.6617999988,3986.55099999814,589121.673999998,97348.6836999982,791808.843999999,795314.094099998,NA,NA,NA,NA,3986.6331000012,728355.407200001,588608.066500001,NA,791808.858600001,728837.9891,791808.794600001,"New experiment",19,"[0]","dist_present",56,32,"yes","yes",1680,-11.7494327509775,4.37720142953213,"more away","False","NR","NR","lp",NA,NA,NA,NA,0,1,"first",1,"R","ex"
"77",1146.07020000031,28554.4425000011,106346.975399993,15,54,"y",5,"['5', '7', '7', 'space']","n","#000000","no",785353.912499999,2,"bias","psycho","psycho","psycho",0,"uniform",0,0,1,1,NA,1,0,NA,0,0,1,0,76,76,NA,NA,NA,NA,0,1,1,NA,76,1,76,73.2296414732588,"Mon Aug  9 14:56:58 2021","The main experiment item","yes","green","no","5","circle",NA,"pinging_target_expectations 3.2.osexp","C:\Users\etp-cp-ping\Desktop\LocalPC-EXP",75,"no","mono","no",18,"no","white","no","yes",1050,NA,2,"psycho",20,1,20,"C:/Users/etp-cp-ping/Desktop/LocalPC-EXP/subject-7.csv","psycho",22,77,21,"Lentiform Loewenfeld","3.3.8","['hori', 'hori', 'vert', 'vert', 'hori', 'vert', 'vert', 'hori']","yes",102,"circles","no",0,NA,2,"legacy",NA,1024,2,48000,-16,"experiment",7,"odd","red","no",4,"diamond",382833.097300001,648713.9484,648714.086299999,NA,656677.9876,NA,NA,97348.6617999988,3986.55099999814,589121.673999998,97348.6836999982,795345.056599999,798482.010700001,NA,NA,NA,NA,3986.6331000012,728355.407200001,588608.066500001,NA,795345.071,728837.9891,795345.008,"New experiment",19,"[0]","dist_present",56,56,"yes","yes",1680,-47.4866686266838,-9.49382116933792,"more away","True","NR","NR","hp","Right",NA,NA,NA,-2,-3,"first",2,"NR","in"
"78",1012.7915000011,29567.2340000022,107359.766899994,16,55,"y",5,"['5', '7', '7', 'space']","n","#000000","no",800284.0803,2,"bias","psycho","psycho","psycho",0,"uniform",1,0,1,1,NA,1,0,NA,0,0,1,0,77,77,NA,NA,NA,NA,0,1,1,NA,77,1,77,73.2296414732588,"Mon Aug  9 14:56:58 2021","The main experiment item","yes","green","no","4","circle",NA,"pinging_target_expectations 3.2.osexp","C:\Users\etp-cp-ping\Desktop\LocalPC-EXP",75,"no","mono","no",18,"no","white","no","yes",1050,NA,2,"psycho",21,1,21,"C:/Users/etp-cp-ping/Desktop/LocalPC-EXP/subject-7.csv","psycho",23,78,22,"Lentiform Loewenfeld","3.3.8","['hori', 'hori', 'hori', 'vert', 'vert', 'vert', 'vert', 'hori']","yes",102,"circles","no",0,NA,2,"legacy",NA,1024,2,48000,-16,"experiment",7,"odd","red","yes",2,"diamond",382833.097300001,648713.9484,648714.086299999,NA,656677.9876,NA,NA,97348.6617999988,3986.55099999814,589121.673999998,97348.6836999982,798512.8578,801506.049299998,NA,NA,NA,NA,3986.6331000012,728355.407200001,588608.066500001,NA,798512.872300002,728837.9891,798512.807200001,"New experiment",19,"[0]","dist_present",56,35,"yes","yes",1680,-8.29451608431088,-1.3921319038012,"more away","True","NR","NR","lp",NA,"Left",NA,"Left",0,-2,"first",4,"NR","ex"
"79",1736.72200000146,31303.9560000036,109096.488899996,17,56,"y",5,"['5', '7', '7', 'space']","n","#000000","no",802886.1282,2,"bias","psycho","psycho","psycho",0,"uniform",1,0,1,1,NA,1,0,NA,0,0,1,0,78,78,NA,NA,NA,NA,0,1,1,NA,78,1,78,73.2296414732588,"Mon Aug  9 14:56:58 2021","The main experiment item","yes","green","no","4","diamond",NA,"pinging_target_expectations 3.2.osexp","C:\Users\etp-cp-ping\Desktop\LocalPC-EXP",75,"no","mono","no",18,"no","white","no","yes",1050,NA,2,"psycho",22,1,22,"C:/Users/etp-cp-ping/Desktop/LocalPC-EXP/subject-7.csv","psycho",24,79,23,"Lentiform Loewenfeld","3.3.8","['hori', 'hori', 'vert', 'hori', 'vert', 'vert', 'hori', 'vert']","no",202,"None","no",0,NA,2,"legacy",NA,1024,2,48000,-16,"experiment",7,"odd","red","yes",2,"circle",382833.097300001,648713.9484,648714.086299999,NA,656677.9876,NA,NA,97348.6617999988,3986.55099999814,589121.673999998,97348.6836999982,801536.774100001,805137.971600001,NA,NA,NA,NA,3986.6331000012,728355.407200001,588608.066500001,NA,801536.788500001,728837.9891,801536.7238,"New experiment",19,"[0]","dist_present",56,35,"yes","yes",1680,-19.4139142946017,-13.1575435369108,"more away","True","R","R","hp",NA,"Left",NA,"Left",0,-2,"first",2,"NR","ex"
"80",1092.13159999857,32396.0876000022,110188.620499994,18,57,"y",5,"['5', '7', '7', 'space']","n","#000000","no",806878.607999999,2,"bias","psycho","psycho","psycho",0,"uniform",1,0,1,1,NA,1,0,NA,0,0,1,0,79,79,NA,NA,NA,NA,0,1,1,NA,79,1,79,73.2296414732588,"Mon Aug  9 14:56:58 2021","The main experiment item","yes","red","no","None","diamond",NA,"pinging_target_expectations 3.2.osexp","C:\Users\etp-cp-ping\Desktop\LocalPC-EXP",75,"no","mono","no",18,"no","white","no","yes",1050,NA,2,"psycho",23,1,23,"C:/Users/etp-cp-ping/Desktop/LocalPC-EXP/subject-7.csv","psycho",25,80,24,"Lentiform Loewenfeld","3.3.8","['hori', 'hori', 'hori', 'vert', 'hori', 'vert', 'vert', 'vert']","yes",102,"diamond","no",0,NA,2,"legacy",NA,1024,2,48000,-16,"experiment",7,"odd","green","no",4,"circle",382833.097300001,648713.9484,648714.086299999,NA,656677.9876,NA,NA,97348.6617999988,3986.55099999814,589121.673999998,97348.6836999982,805168.940899999,808001.984099999,NA,NA,NA,NA,3986.6331000012,728355.407200001,588608.066500001,NA,805168.955599998,728837.9891,805168.889600001,"New experiment",19,"[0]","dist_absent",56,59,"yes","yes",1680,-10.0986968575606,7.79918575555094,"more away","True","NR","NR","hp",NA,NA,NA,NA,-2,NA,"first",2,"R","in"
"81",1824.44140000001,34220.5290000022,112013.061899994,19,58,"y",5,"['5', '7', '7', 'space']","n","#000000","no",806878.607999999,2,"bias","psycho","psycho","psycho",0,"uniform",1,0,1,1,NA,1,0,NA,0,0,1,0,80,80,NA,NA,NA,NA,0,1,1,NA,80,1,80,73.2296414732588,"Mon Aug  9 14:56:58 2021","The main experiment item","yes","green","no","None","circle",NA,"pinging_target_expectations 3.2.osexp","C:\Users\etp-cp-ping\Desktop\LocalPC-EXP",75,"no","mono","no",18,"no","white","no","yes",1050,NA,2,"psycho",24,1,24,"C:/Users/etp-cp-ping/Desktop/LocalPC-EXP/subject-7.csv","psycho",25,81,25,"Lentiform Loewenfeld","3.3.8","['hori', 'vert', 'vert', 'hori', 'hori', 'vert', 'hori', 'vert']","no",202,"None","no",0,NA,2,"legacy",NA,1024,2,48000,-16,"experiment",7,"odd","red","yes",2,"diamond",382833.097300001,648713.9484,648714.086299999,NA,656677.9876,NA,NA,97348.6617999988,3986.55099999814,589121.673999998,97348.6836999982,808033.217100001,811858.0449,NA,NA,NA,NA,3986.6331000012,728355.407200001,588608.066500001,NA,808033.231400001,728837.9891,808033.167599999,"New experiment",19,"[0]","dist_absent",56,39,"yes","yes",1680,-6.78268275097754,14.5182014295321,"more toward","False","NR","R","lp",NA,"Left",NA,"Left",0,NA,"first",4,"NR","ex"
