"","RT","RT_bl","RT_tot","acc_bl","acc_tot","answer_debrief_1","answer_debrief_2","answer_debrief_3","answer_debrief_4","background","bidi","blink_onset","block_cnt","block_type","canvas_backend","clock_backend","color_backend","compensation","coordinates","correct","count_block_loop","count_block_seq","count_block_settings","count_check_session","count_drift_correct","count_end_loop","count_end_seq","count_exp_settings","count_experiment","count_feedback","count_instructions","count_log_variables","count_logger","count_new_inline_script","count_new_pygaze_drift_correct","count_new_pygaze_start_recording","count_new_pygaze_stop_recording","count_pygaze","count_start_recording","count_stop_recording","count_test_location","count_trial","count_trial_loop","count_trial_seq","d_eye","datetime","description","disable_garbage_collection","dist_color","dist_high","dist_loc","dist_shape","empty_column","experiment_file","experiment_path","eye_threshold_length","font_bold","font_family","font_italic","font_size","font_underline","foreground","form_clicks","fullscreen","height","high_loc","high_prob_loc","keyboard_backend","live_row","live_row_block_loop","live_row_trial_loop","logfile","mouse_backend","nr_blinks","nr_trials","nr_trials_bl","opensesame_codename","opensesame_version","orient_list_trial","ping","ping_trigger","ping_type","practice","repeat_cycle","response","round_decimals","sampler_backend","session_nr","sound_buf_size","sound_channels","sound_freq","sound_sample_size","start","subject_nr","subject_parity","target_color","target_high","target_loc","target_shape","time_block_loop","time_block_seq","time_block_settings","time_check_session","time_drift_correct","time_end_loop","time_end_seq","time_exp_settings","time_experiment","time_feedback","time_instructions","time_log_variables","time_logger","time_new_inline_script","time_new_pygaze_drift_correct","time_new_pygaze_start_recording","time_new_pygaze_stop_recording","time_pygaze","time_start_recording","time_stop_recording","time_test_location","time_trial","time_trial_loop","time_trial_seq","title","total_blocks","tracker_dev","trial_type","trials_in_block","trigger","uniform_coordinates","update_blinks","width","x","y","toward","containsNaN","rept","repd","prevtar","pd","nt","pd_c","nt_c","tar_dist","dist_dist","prevHP","eegTar","repteeg","tarcounter"
"1",569.521200001007,569.521200001007,569.521200001007,0,0,"y",7,"['6', 'space']","y","#000000","no",3501.78749999941,1,"neutral","psycho","psycho","psycho",0,"uniform",0,0,0,0,NA,0,0,NA,0,0,0,0,0,0,NA,NA,NA,NA,0,0,0,NA,0,0,0,73.2296414732588,"Thu Sep 16 11:23:27 2021","The main experiment item","yes","green","no","6","diamond",NA,"pinging_target_expectations 4.0.osexp","C:\Users\etp-cp-ping\Desktop\LocalPC-EXP",75,"no","mono","no",18,"no","white","no","yes",1050,NA,100,"psycho",0,0,0,"C:/Users/etp-cp-ping/Desktop/LocalPC-EXP/subject-14.csv","psycho",0,1,1,"Lentiform Loewenfeld","3.3.8","['vert', 'hori', 'hori', 'vert', 'vert', 'hori', 'hori', 'vert']","no",209,"None","yes",0,NA,2,"legacy",NA,1024,2,48000,-16,"experiment",14,"even","red","no",2,"circle",492541.0918,492562.1949,492562.2348,NA,496077.1057,NA,NA,218168.551799999,3507.2110000001,NA,218168.573699999,497427.867999999,500077.8446,NA,NA,NA,NA,3507.28979999985,496892.9556,NA,NA,497427.8827,497423.585799999,497427.821499999,"New experiment",19,"[0]","dist_present",56,37,"yes","yes",1680,NA,NA,NA,NA,"NR","NR","lp",NA,NA,NA,NA,NA,NA,"practice",999,"NR","in"
"2",720.016500001308,1289.53770000231,1289.53770000231,0,0,"y",7,"['6', 'space']","y","#000000","no",3501.78749999941,1,"neutral","psycho","psycho","psycho",0,"uniform",0,0,0,0,NA,0,0,NA,0,0,0,0,1,1,NA,NA,NA,NA,0,0,0,NA,1,0,1,73.2296414732588,"Thu Sep 16 11:23:27 2021","The main experiment item","yes","red","no","None","circle",NA,"pinging_target_expectations 4.0.osexp","C:\Users\etp-cp-ping\Desktop\LocalPC-EXP",75,"no","mono","no",18,"no","white","no","yes",1050,NA,100,"psycho",1,0,1,"C:/Users/etp-cp-ping/Desktop/LocalPC-EXP/subject-14.csv","psycho",0,2,2,"Lentiform Loewenfeld","3.3.8","['hori', 'vert', 'hori', 'vert', 'hori', 'vert', 'vert', 'hori']","yes",109,"diamond","yes",0,NA,2,"legacy",NA,1024,2,48000,-16,"experiment",14,"even","green","no",3,"diamond",492541.0918,492562.1949,492562.2348,NA,496077.1057,NA,NA,218168.551799999,3507.2110000001,NA,218168.573699999,500118.1899,502701.8322,NA,NA,NA,NA,3507.28979999985,496892.9556,NA,NA,500118.203800001,497423.585799999,500118.1409,"New experiment",19,"[0]","dist_absent",56,49,"yes","yes",1680,NA,NA,NA,NA,"NR","NR","lp",NA,"Left",NA,NA,NA,NA,"practice",2,"NR","in"
"3",805.700799999642,2095.23850000196,2095.23850000196,1,1,"y",7,"['6', 'space']","y","#000000","no",3501.78749999941,1,"neutral","psycho","psycho","psycho",0,"uniform",1,0,0,0,NA,0,0,NA,0,0,0,0,2,2,NA,NA,NA,NA,0,0,0,NA,2,0,2,73.2296414732588,"Thu Sep 16 11:23:27 2021","The main experiment item","yes","red","no","3","circle",NA,"pinging_target_expectations 4.0.osexp","C:\Users\etp-cp-ping\Desktop\LocalPC-EXP",75,"no","mono","no",18,"no","white","no","yes",1050,NA,100,"psycho",2,0,2,"C:/Users/etp-cp-ping/Desktop/LocalPC-EXP/subject-14.csv","psycho",0,3,3,"Lentiform Loewenfeld","3.3.8","['hori', 'vert', 'vert', 'hori', 'hori', 'hori', 'vert', 'vert']","yes",109,"circles","yes",0,NA,2,"legacy",NA,1024,2,48000,-16,"experiment",14,"even","green","no",4,"diamond",492541.0918,492562.1949,492562.2348,NA,496077.1057,NA,NA,218168.551799999,3507.2110000001,NA,218168.573699999,502732.2625,505501.8862,NA,NA,NA,NA,3507.28979999985,496892.9556,NA,NA,502732.2778,497423.585799999,502732.205,"New experiment",19,"[0]","dist_present",56,54,"yes","yes",1680,NA,NA,NA,NA,"NR","NR","lp","Left",NA,NA,NA,NA,NA,"practice",3,"NR","in"
"4",748.939900000521,2844.17840000248,2844.17840000248,2,2,"y",7,"['6', 'space']","y","#000000","no",3501.78749999941,1,"neutral","psycho","psycho","psycho",0,"uniform",1,0,0,0,NA,0,0,NA,0,0,0,0,3,3,NA,NA,NA,NA,0,0,0,NA,3,0,3,73.2296414732588,"Thu Sep 16 11:23:27 2021","The main experiment item","yes","red","no","None","diamond",NA,"pinging_target_expectations 4.0.osexp","C:\Users\etp-cp-ping\Desktop\LocalPC-EXP",75,"no","mono","no",18,"no","white","no","yes",1050,NA,100,"psycho",3,0,3,"C:/Users/etp-cp-ping/Desktop/LocalPC-EXP/subject-14.csv","psycho",0,4,4,"Lentiform Loewenfeld","3.3.8","['hori', 'hori', 'vert', 'hori', 'hori', 'vert', 'vert', 'vert']","yes",109,"circles","yes",0,NA,2,"legacy",NA,1024,2,48000,-16,"experiment",14,"even","green","no",6,"circle",492541.0918,492562.1949,492562.2348,NA,496077.1057,NA,NA,218168.551799999,3507.2110000001,NA,218168.573699999,505531.9655,508301.959099999,NA,NA,NA,NA,3507.28979999985,496892.9556,NA,NA,505531.9796,497423.585799999,505531.916099999,"New experiment",19,"[0]","dist_absent",56,79,"yes","yes",1680,NA,NA,NA,NA,"NR","NR","lp",NA,"Right",NA,"Right",NA,NA,"practice",4,"NR","in"
"5",741.034599999723,3585.2130000022,3585.2130000022,3,3,"y",7,"['6', 'space']","y","#000000","no",3501.78749999941,1,"neutral","psycho","psycho","psycho",0,"uniform",1,0,0,0,NA,0,0,NA,0,0,0,0,4,4,NA,NA,NA,NA,0,0,0,NA,4,0,4,73.2296414732588,"Thu Sep 16 11:23:27 2021","The main experiment item","yes","red","no","None","circle",NA,"pinging_target_expectations 4.0.osexp","C:\Users\etp-cp-ping\Desktop\LocalPC-EXP",75,"no","mono","no",18,"no","white","no","yes",1050,NA,100,"psycho",4,0,4,"C:/Users/etp-cp-ping/Desktop/LocalPC-EXP/subject-14.csv","psycho",0,5,5,"Lentiform Loewenfeld","3.3.8","['vert', 'hori', 'vert', 'vert', 'hori', 'hori', 'vert', 'hori']","no",209,"None","yes",0,NA,2,"legacy",NA,1024,2,48000,-16,"experiment",14,"even","green","no",0,"diamond",492541.0918,492562.1949,492562.2348,NA,496077.1057,NA,NA,218168.551799999,3507.2110000001,NA,218168.573699999,508332.1383,510781.985399999,NA,NA,NA,NA,3507.28979999985,496892.9556,NA,NA,508332.1524,497423.585799999,508332.0893,"New experiment",19,"[0]","dist_absent",56,19,"yes","yes",1680,NA,NA,NA,NA,"NR","R","lp",NA,NA,NA,NA,NA,NA,"practice",6,"NR","in"
"6",1305.56900000013,4890.78200000233,4890.78200000233,4,4,"y",7,"['6', 'space']","y","#000000","no",3501.78749999941,1,"neutral","psycho","psycho","psycho",0,"uniform",1,0,0,0,NA,0,0,NA,0,0,0,0,5,5,NA,NA,NA,NA,0,0,0,NA,5,0,5,73.2296414732588,"Thu Sep 16 11:23:27 2021","The main experiment item","yes","red","no","7","diamond",NA,"pinging_target_expectations 4.0.osexp","C:\Users\etp-cp-ping\Desktop\LocalPC-EXP",75,"no","mono","no",18,"no","white","no","yes",1050,NA,100,"psycho",5,0,5,"C:/Users/etp-cp-ping/Desktop/LocalPC-EXP/subject-14.csv","psycho",0,6,6,"Lentiform Loewenfeld","3.3.8","['hori', 'hori', 'hori', 'vert', 'vert', 'vert', 'vert', 'hori']","yes",109,"circles","yes",0,NA,2,"legacy",NA,1024,2,48000,-16,"experiment",14,"even","green","no",4,"circle",492541.0918,492562.1949,492562.2348,NA,496077.1057,NA,NA,218168.551799999,3507.2110000001,NA,218168.573699999,510812.0824,514061.8579,NA,NA,NA,NA,3507.28979999985,496892.9556,NA,NA,510812.0967,497423.585799999,510812.0332,"New experiment",19,"[0]","dist_present",56,58,"yes","yes",1680,NA,NA,NA,NA,"NR","NR","lp","Right",NA,NA,NA,NA,NA,"practice",0,"NR","in"
"7",658.62080000079,5549.40280000312,5549.40280000312,5,5,"y",7,"['6', 'space']","y","#000000","no",3501.78749999941,1,"neutral","psycho","psycho","psycho",0,"uniform",1,0,0,0,NA,0,0,NA,0,0,0,0,6,6,NA,NA,NA,NA,0,0,0,NA,6,0,6,73.2296414732588,"Thu Sep 16 11:23:27 2021","The main experiment item","yes","green","no","4","diamond",NA,"pinging_target_expectations 4.0.osexp","C:\Users\etp-cp-ping\Desktop\LocalPC-EXP",75,"no","mono","no",18,"no","white","no","yes",1050,NA,100,"psycho",6,0,6,"C:/Users/etp-cp-ping/Desktop/LocalPC-EXP/subject-14.csv","psycho",0,7,7,"Lentiform Loewenfeld","3.3.8","['vert', 'hori', 'hori', 'vert', 'hori', 'hori', 'vert', 'vert']","yes",109,"circles","yes",0,NA,2,"legacy",NA,1024,2,48000,-16,"experiment",14,"even","red","no",2,"circle",492541.0918,492562.1949,492562.2348,NA,496077.1057,NA,NA,218168.551799999,3507.2110000001,NA,218168.573699999,514092.026299999,516733.832399999,NA,NA,NA,NA,3507.28979999985,496892.9556,NA,NA,514092.0406,497423.585799999,514091.9767,"New experiment",19,"[0]","dist_present",56,35,"yes","yes",1680,NA,NA,NA,NA,"NR","NR","lp",NA,"Left",NA,"Left",NA,NA,"practice",4,"NR","in"
"8",765.913600000204,6315.31640000333,6315.31640000333,6,6,"y",7,"['6', 'space']","y","#000000","no",3501.78749999941,1,"neutral","psycho","psycho","psycho",0,"uniform",1,0,0,0,NA,0,0,NA,0,0,0,0,7,7,NA,NA,NA,NA,0,0,0,NA,7,0,7,73.2296414732588,"Thu Sep 16 11:23:27 2021","The main experiment item","yes","green","no","None","circle",NA,"pinging_target_expectations 4.0.osexp","C:\Users\etp-cp-ping\Desktop\LocalPC-EXP",75,"no","mono","no",18,"no","white","no","yes",1050,NA,100,"psycho",7,0,7,"C:/Users/etp-cp-ping/Desktop/LocalPC-EXP/subject-14.csv","psycho",0,8,8,"Lentiform Loewenfeld","3.3.8","['hori', 'hori', 'vert', 'hori', 'vert', 'vert', 'hori', 'vert']","no",209,"None","yes",0,NA,2,"legacy",NA,1024,2,48000,-16,"experiment",14,"even","red","no",4,"diamond",492541.0918,492562.1949,492562.2348,NA,496077.1057,NA,NA,218168.551799999,3507.2110000001,NA,218168.573699999,516763.840699999,519517.8428,NA,NA,NA,NA,3507.28979999985,496892.9556,NA,NA,516763.8548,497423.585799999,516763.7904,"New experiment",19,"[0]","dist_absent",56,59,"yes","yes",1680,NA,NA,NA,NA,"NR","NR","lp",NA,NA,NA,NA,NA,NA,"practice",2,"NR","in"
"9",774.741700000945,7090.05810000427,7090.05810000427,7,7,"y",7,"['6', 'space']","y","#000000","no",3501.78749999941,1,"neutral","psycho","psycho","psycho",0,"uniform",1,0,0,0,NA,0,0,NA,0,0,0,0,8,8,NA,NA,NA,NA,0,0,0,NA,8,0,8,73.2296414732588,"Thu Sep 16 11:23:27 2021","The main experiment item","yes","green","no","6","diamond",NA,"pinging_target_expectations 4.0.osexp","C:\Users\etp-cp-ping\Desktop\LocalPC-EXP",75,"no","mono","no",18,"no","white","no","yes",1050,NA,100,"psycho",8,0,8,"C:/Users/etp-cp-ping/Desktop/LocalPC-EXP/subject-14.csv","psycho",0,9,9,"Lentiform Loewenfeld","3.3.8","['hori', 'vert', 'hori', 'vert', 'vert', 'vert', 'hori', 'hori']","yes",109,"circles","yes",0,NA,2,"legacy",NA,1024,2,48000,-16,"experiment",14,"even","red","no",1,"circle",492541.0918,492562.1949,492562.2348,NA,496077.1057,NA,NA,218168.551799999,3507.2110000001,NA,218168.573699999,519547.937899999,522205.857299999,NA,NA,NA,NA,3507.28979999985,496892.9556,NA,NA,519547.952499999,497423.585799999,519547.8857,"New experiment",19,"[0]","dist_present",56,27,"yes","yes",1680,NA,NA,NA,NA,"NR","NR","lp",NA,NA,NA,NA,NA,NA,"practice",4,"NR","in"
"10",1090.00579999876,8180.06390000304,8180.06390000304,8,8,"y",7,"['6', 'space']","y","#000000","no",3501.78749999941,1,"neutral","psycho","psycho","psycho",0,"uniform",1,0,0,0,NA,0,0,NA,0,0,0,0,9,9,NA,NA,NA,NA,0,0,0,NA,9,0,9,73.2296414732588,"Thu Sep 16 11:23:27 2021","The main experiment item","yes","green","no","0","diamond",NA,"pinging_target_expectations 4.0.osexp","C:\Users\etp-cp-ping\Desktop\LocalPC-EXP",75,"no","mono","no",18,"no","white","no","yes",1050,NA,100,"psycho",9,0,9,"C:/Users/etp-cp-ping/Desktop/LocalPC-EXP/subject-14.csv","psycho",0,10,10,"Lentiform Loewenfeld","3.3.8","['hori', 'hori', 'vert', 'vert', 'hori', 'vert', 'hori', 'vert']","yes",109,"circles","yes",0,NA,2,"legacy",NA,1024,2,48000,-16,"experiment",14,"even","red","no",5,"circle",492541.0918,492562.1949,492562.2348,NA,496077.1057,NA,NA,218168.551799999,3507.2110000001,NA,218168.573699999,522236.1064,525165.8663,NA,NA,NA,NA,3507.28979999985,496892.9556,NA,NA,522236.120399999,497423.585799999,522236.057799999,"New experiment",19,"[0, 73.46869816034408, 73.6065855480028]","dist_present",56,61,"yes","yes",1680,NA,NA,NA,NA,"NR","NR","lp",NA,"Right",NA,NA,NA,NA,"practice",1,"NR","in"
"11",1682.10519999964,9862.16910000268,9862.16910000268,8,8,"y",7,"['6', 'space']","y","#000000","no",3501.78749999941,1,"neutral","psycho","psycho","psycho",0,"uniform",0,0,0,0,NA,0,0,NA,0,0,0,0,10,10,NA,NA,NA,NA,0,0,0,NA,10,0,10,73.2296414732588,"Thu Sep 16 11:23:27 2021","The main experiment item","yes","green","no","7","diamond",NA,"pinging_target_expectations 4.0.osexp","C:\Users\etp-cp-ping\Desktop\LocalPC-EXP",75,"no","mono","no",18,"no","white","no","yes",1050,NA,100,"psycho",10,0,10,"C:/Users/etp-cp-ping/Desktop/LocalPC-EXP/subject-14.csv","psycho",0,11,11,"Lentiform Loewenfeld","3.3.8","['hori', 'hori', 'vert', 'vert', 'vert', 'hori', 'hori', 'vert']","yes",109,"diamond","yes",0,NA,2,"legacy",NA,1024,2,48000,-16,"experiment",14,"even","red","no",2,"circle",492541.0918,492562.1949,492562.2348,NA,496077.1057,NA,NA,218168.551799999,3507.2110000001,NA,218168.573699999,525195.926999999,528941.885,NA,NA,NA,NA,3507.28979999985,496892.9556,NA,NA,525195.941,497423.585799999,525195.8782,"New experiment",19,"[0]","dist_present",56,38,"yes","yes",1680,NA,NA,NA,NA,"NR","NR","lp",NA,NA,NA,NA,NA,NA,"practice",5,"NR","in"
"12",1715.52890000015,11577.6980000028,11577.6980000028,9,9,"y",7,"['6', 'space']","y","#000000","no",3501.78749999941,1,"neutral","psycho","psycho","psycho",0,"uniform",1,0,0,0,NA,0,0,NA,0,0,0,0,11,11,NA,NA,NA,NA,0,0,0,NA,11,0,11,73.2296414732588,"Thu Sep 16 11:23:27 2021","The main experiment item","yes","green","no","2","diamond",NA,"pinging_target_expectations 4.0.osexp","C:\Users\etp-cp-ping\Desktop\LocalPC-EXP",75,"no","mono","no",18,"no","white","no","yes",1050,NA,100,"psycho",11,0,11,"C:/Users/etp-cp-ping/Desktop/LocalPC-EXP/subject-14.csv","psycho",0,12,12,"Lentiform Loewenfeld","3.3.8","['vert', 'hori', 'vert', 'hori', 'vert', 'vert', 'hori', 'hori']","no",209,"None","yes",0,NA,2,"legacy",NA,1024,2,48000,-16,"experiment",14,"even","red","no",0,"circle",492541.0918,492562.1949,492562.2348,NA,496077.1057,NA,NA,218168.551799999,3507.2110000001,NA,218168.573699999,528971.8171,532749.883999999,NA,NA,NA,NA,3507.28979999985,496892.9556,NA,NA,528971.830799999,497423.585799999,528971.768899999,"New experiment",19,"[0]","dist_present",56,13,"yes","yes",1680,NA,NA,NA,NA,"NR","NR","lp","Left",NA,"Left",NA,NA,NA,"practice",2,"NR","in"
"13",914.291400000337,12491.9894000032,12491.9894000032,10,10,"y",7,"['6', 'space']","y","#000000","no",3501.78749999941,1,"neutral","psycho","psycho","psycho",0,"uniform",1,0,0,0,NA,0,0,NA,0,0,0,0,12,12,NA,NA,NA,NA,0,0,0,NA,12,0,12,73.2296414732588,"Thu Sep 16 11:23:27 2021","The main experiment item","yes","red","no","4","circle",NA,"pinging_target_expectations 4.0.osexp","C:\Users\etp-cp-ping\Desktop\LocalPC-EXP",75,"no","mono","no",18,"no","white","no","yes",1050,NA,100,"psycho",12,0,12,"C:/Users/etp-cp-ping/Desktop/LocalPC-EXP/subject-14.csv","psycho",0,13,13,"Lentiform Loewenfeld","3.3.8","['vert', 'hori', 'vert', 'hori', 'vert', 'hori', 'vert', 'hori']","no",209,"None","yes",0,NA,2,"legacy",NA,1024,2,48000,-16,"experiment",14,"even","green","no",1,"diamond",492541.0918,492562.1949,492562.2348,NA,496077.1057,NA,NA,218168.551799999,3507.2110000001,NA,218168.573699999,532779.907599999,535469.879599999,NA,NA,NA,NA,3507.28979999985,496892.9556,NA,NA,532779.9218,497423.585799999,532779.8576,"New experiment",19,"[0]","dist_present",56,25,"yes","yes",1680,NA,NA,NA,NA,"NR","NR","lp",NA,"Left",NA,NA,NA,NA,"practice",0,"NR","in"
"14",941.527899998589,13433.5173000018,13433.5173000018,11,11,"y",7,"['6', 'space']","y","#000000","no",3501.78749999941,1,"neutral","psycho","psycho","psycho",0,"uniform",1,0,0,0,NA,0,0,NA,0,0,0,0,13,13,NA,NA,NA,NA,0,0,0,NA,13,0,13,73.2296414732588,"Thu Sep 16 11:23:27 2021","The main experiment item","yes","green","no","None","diamond",NA,"pinging_target_expectations 4.0.osexp","C:\Users\etp-cp-ping\Desktop\LocalPC-EXP",75,"no","mono","no",18,"no","white","no","yes",1050,NA,100,"psycho",13,0,13,"C:/Users/etp-cp-ping/Desktop/LocalPC-EXP/subject-14.csv","psycho",0,14,14,"Lentiform Loewenfeld","3.3.8","['vert', 'hori', 'vert', 'hori', 'hori', 'vert', 'vert', 'hori']","no",209,"None","yes",0,NA,2,"legacy",NA,1024,2,48000,-16,"experiment",14,"even","red","no",2,"circle",492541.0918,492562.1949,492562.2348,NA,496077.1057,NA,NA,218168.551799999,3507.2110000001,NA,218168.573699999,535499.9326,538365.863499999,NA,NA,NA,NA,3507.28979999985,496892.9556,NA,NA,535499.948499999,497423.585799999,535499.881199999,"New experiment",19,"[0]","dist_absent",56,39,"yes","yes",1680,NA,NA,NA,NA,"NR","NR","lp",NA,"Left",NA,"Left",NA,NA,"practice",1,"NR","in"
"15",1490.13589999964,14923.6532000014,14923.6532000014,12,12,"y",7,"['6', 'space']","y","#000000","no",3501.78749999941,1,"neutral","psycho","psycho","psycho",0,"uniform",1,0,0,0,NA,0,0,NA,0,0,0,0,14,14,NA,NA,NA,NA,0,0,0,NA,14,0,14,73.2296414732588,"Thu Sep 16 11:23:27 2021","The main experiment item","yes","red","no","4","diamond",NA,"pinging_target_expectations 4.0.osexp","C:\Users\etp-cp-ping\Desktop\LocalPC-EXP",75,"no","mono","no",18,"no","white","no","yes",1050,NA,100,"psycho",14,0,14,"C:/Users/etp-cp-ping/Desktop/LocalPC-EXP/subject-14.csv","psycho",0,15,15,"Lentiform Loewenfeld","3.3.8","['vert', 'hori', 'vert', 'hori', 'hori', 'vert', 'hori', 'vert']","no",209,"None","yes",0,NA,2,"legacy",NA,1024,2,48000,-16,"experiment",14,"even","green","no",1,"circle",492541.0918,492562.1949,492562.2348,NA,496077.1057,NA,NA,218168.551799999,3507.2110000001,NA,218168.573699999,538395.8659,541757.924699999,NA,NA,NA,NA,3507.28979999985,496892.9556,NA,NA,538395.879899999,497423.585799999,538395.8171,"New experiment",19,"[0]","dist_present",56,25,"yes","yes",1680,NA,NA,NA,NA,"NR","NR","lp",NA,"Left",NA,NA,NA,NA,"practice",2,"NR","in"
"16",940.160399999586,15863.813600001,15863.813600001,13,13,"y",7,"['6', 'space']","y","#000000","no",3501.78749999941,1,"neutral","psycho","psycho","psycho",0,"uniform",1,0,0,0,NA,0,0,NA,0,0,0,0,15,15,NA,NA,NA,NA,0,0,0,NA,15,0,15,73.2296414732588,"Thu Sep 16 11:23:27 2021","The main experiment item","yes","red","no","3","circle",NA,"pinging_target_expectations 4.0.osexp","C:\Users\etp-cp-ping\Desktop\LocalPC-EXP",75,"no","mono","no",18,"no","white","no","yes",1050,NA,100,"psycho",15,0,15,"C:/Users/etp-cp-ping/Desktop/LocalPC-EXP/subject-14.csv","psycho",0,16,16,"Lentiform Loewenfeld","3.3.8","['vert', 'hori', 'hori', 'hori', 'vert', 'hori', 'vert', 'vert']","yes",109,"circles","yes",0,NA,2,"legacy",NA,1024,2,48000,-16,"experiment",14,"even","green","no",6,"diamond",492541.0918,492562.1949,492562.2348,NA,496077.1057,NA,NA,218168.551799999,3507.2110000001,NA,218168.573699999,541788.5159,544349.856799999,NA,NA,NA,NA,3507.28979999985,496892.9556,NA,NA,541788.5298,497423.585799999,541788.4639,"New experiment",19,"[0]","dist_present",56,74,"yes","yes",1680,NA,NA,NA,NA,"NR","NR","lp",NA,NA,NA,NA,NA,NA,"practice",1,"NR","in"
"17",1767.89980000095,17631.7134000019,17631.7134000019,14,14,"y",7,"['6', 'space']","y","#000000","no",545027.1046,1,"neutral","psycho","psycho","psycho",0,"uniform",1,0,0,0,NA,0,0,NA,0,0,0,0,16,16,NA,NA,NA,NA,0,0,0,NA,16,0,16,73.2296414732588,"Thu Sep 16 11:23:27 2021","The main experiment item","yes","red","no","7","diamond",NA,"pinging_target_expectations 4.0.osexp","C:\Users\etp-cp-ping\Desktop\LocalPC-EXP",75,"no","mono","no",18,"no","white","no","yes",1050,NA,100,"psycho",16,0,16,"C:/Users/etp-cp-ping/Desktop/LocalPC-EXP/subject-14.csv","psycho",1,17,17,"Lentiform Loewenfeld","3.3.8","['hori', 'hori', 'vert', 'hori', 'vert', 'vert', 'vert', 'hori']","yes",109,"circles","yes",0,NA,2,"legacy",NA,1024,2,48000,-16,"experiment",14,"even","green","no",0,"circle",492541.0918,492562.1949,492562.2348,NA,496077.1057,NA,NA,218168.551799999,3507.2110000001,NA,218168.573699999,544381.6756,547901.949900001,NA,NA,NA,NA,3507.28979999985,496892.9556,NA,NA,544381.69,497423.585799999,544381.6248,"New experiment",19,"[0, 86.1297772424391, 133.1854381402801, 183.47150072190826, 234.53313717178938, 290.38638139638886, 344.9461824497002, 403.20516974147444, 460.9798808270746, 514.0639035291448, 570.9181643636776, 626.556344986136, 685.7925156962284, 751.2226850632987, 817.4209203258325, 969.790865712291, 1012.2618032138978, 1053.8057201752256, 1094.4646635427089, 1134.2510137756003, 1164.9248057935226, 1168.7061066394278, 1273.580780438273, 1293.0772537582634, 1299.6028526023595, 1291.1974739815776, 1277.182186299008]","dist_present",56,18,"yes","no",1680,NA,NA,NA,NA,"NR","NR","lp","Right",NA,NA,NA,NA,NA,"practice",6,"NR","in"
"18",1028.20439999958,18659.9178000015,18659.9178000015,14,14,"y",7,"['6', 'space']","y","#000000","no",545027.1046,1,"neutral","psycho","psycho","psycho",0,"uniform",0,0,0,0,NA,0,0,NA,0,0,0,0,17,17,NA,NA,NA,NA,0,0,0,NA,17,0,17,73.2296414732588,"Thu Sep 16 11:23:27 2021","The main experiment item","yes","green","no","2","circle",NA,"pinging_target_expectations 4.0.osexp","C:\Users\etp-cp-ping\Desktop\LocalPC-EXP",75,"no","mono","no",18,"no","white","no","yes",1050,NA,100,"psycho",17,0,17,"C:/Users/etp-cp-ping/Desktop/LocalPC-EXP/subject-14.csv","psycho",1,18,18,"Lentiform Loewenfeld","3.3.8","['vert', 'hori', 'vert', 'hori', 'hori', 'vert', 'hori', 'vert']","yes",109,"diamond","yes",0,NA,2,"legacy",NA,1024,2,48000,-16,"experiment",14,"even","red","no",4,"diamond",492541.0918,492562.1949,492562.2348,NA,496077.1057,NA,NA,218168.551799999,3507.2110000001,NA,218168.573699999,547932.3754,551005.9176,NA,NA,NA,NA,3507.28979999985,496892.9556,NA,NA,547932.389600001,497423.585799999,547932.3248,"New experiment",19,"[0]","dist_present",56,53,"yes","yes",1680,NA,NA,NA,NA,"NR","NR","lp","Left",NA,"Left",NA,NA,NA,"practice",0,"NR","in"
"19",648.584299999173,19308.5021000007,19308.5021000007,15,15,"y",7,"['6', 'space']","y","#000000","no",545027.1046,1,"neutral","psycho","psycho","psycho",0,"uniform",1,0,0,0,NA,0,0,NA,0,0,0,0,18,18,NA,NA,NA,NA,0,0,0,NA,18,0,18,73.2296414732588,"Thu Sep 16 11:23:27 2021","The main experiment item","yes","green","no","7","diamond",NA,"pinging_target_expectations 4.0.osexp","C:\Users\etp-cp-ping\Desktop\LocalPC-EXP",75,"no","mono","no",18,"no","white","no","yes",1050,NA,100,"psycho",18,0,18,"C:/Users/etp-cp-ping/Desktop/LocalPC-EXP/subject-14.csv","psycho",1,19,19,"Lentiform Loewenfeld","3.3.8","['vert', 'vert', 'hori', 'hori', 'vert', 'vert', 'hori', 'hori']","no",209,"None","yes",0,NA,2,"legacy",NA,1024,2,48000,-16,"experiment",14,"even","red","no",1,"circle",492541.0918,492562.1949,492562.2348,NA,496077.1057,NA,NA,218168.551799999,3507.2110000001,NA,218168.573699999,551036.5824,553773.855699999,NA,NA,NA,NA,3507.28979999985,496892.9556,NA,NA,551036.5962,497423.585799999,551036.5334,"New experiment",19,"[0]","dist_present",56,28,"yes","yes",1680,NA,NA,NA,NA,"NR","NR","lp",NA,NA,NA,NA,NA,NA,"practice",4,"NR","in"
"20",1708.0620999987,21016.5641999994,21016.5641999994,16,16,"y",7,"['6', 'space']","y","#000000","no",545027.1046,1,"neutral","psycho","psycho","psycho",0,"uniform",1,0,0,0,NA,0,0,NA,0,0,0,0,19,19,NA,NA,NA,NA,0,0,0,NA,19,0,19,73.2296414732588,"Thu Sep 16 11:23:27 2021","The main experiment item","yes","red","no","None","diamond",NA,"pinging_target_expectations 4.0.osexp","C:\Users\etp-cp-ping\Desktop\LocalPC-EXP",75,"no","mono","no",18,"no","white","no","yes",1050,NA,100,"psycho",19,0,19,"C:/Users/etp-cp-ping/Desktop/LocalPC-EXP/subject-14.csv","psycho",1,20,20,"Lentiform Loewenfeld","3.3.8","['vert', 'vert', 'hori', 'hori', 'hori', 'vert', 'vert', 'hori']","yes",109,"diamond","yes",0,NA,2,"legacy",NA,1024,2,48000,-16,"experiment",14,"even","green","no",1,"circle",492541.0918,492562.1949,492562.2348,NA,496077.1057,NA,NA,218168.551799999,3507.2110000001,NA,218168.573699999,553803.894799999,557485.9249,NA,NA,NA,NA,3507.28979999985,496892.9556,NA,NA,553803.909099999,497423.585799999,553803.8442,"New experiment",19,"[0]","dist_absent",56,29,"yes","yes",1680,NA,NA,NA,NA,"R","NR","lp",NA,"Left",NA,NA,NA,NA,"practice",1,"NR","in"
"21",908.314000000246,21924.8781999996,21924.8781999996,17,17,"y",7,"['6', 'space']","y","#000000","no",545027.1046,1,"neutral","psycho","psycho","psycho",0,"uniform",1,0,0,0,NA,0,0,NA,0,0,0,0,20,20,NA,NA,NA,NA,0,0,0,NA,20,0,20,73.2296414732588,"Thu Sep 16 11:23:27 2021","The main experiment item","yes","red","no","0","diamond",NA,"pinging_target_expectations 4.0.osexp","C:\Users\etp-cp-ping\Desktop\LocalPC-EXP",75,"no","mono","no",18,"no","white","no","yes",1050,NA,100,"psycho",20,0,20,"C:/Users/etp-cp-ping/Desktop/LocalPC-EXP/subject-14.csv","psycho",1,21,21,"Lentiform Loewenfeld","3.3.8","['hori', 'vert', 'vert', 'hori', 'vert', 'hori', 'vert', 'hori']","no",209,"None","yes",0,NA,2,"legacy",NA,1024,2,48000,-16,"experiment",14,"even","green","no",5,"circle",492541.0918,492562.1949,492562.2348,NA,496077.1057,NA,NA,218168.551799999,3507.2110000001,NA,218168.573699999,557515.9957,560157.9134,NA,NA,NA,NA,3507.28979999985,496892.9556,NA,NA,557516.0098,497423.585799999,557515.9468,"New experiment",19,"[0]","dist_present",56,61,"yes","yes",1680,NA,NA,NA,NA,"NR","NR","lp",NA,"Right",NA,NA,NA,NA,"practice",1,"R","in"
"22",1538.41289999941,23463.291099999,23463.291099999,18,18,"y",7,"['6', 'space']","y","#000000","no",545027.1046,1,"neutral","psycho","psycho","psycho",0,"uniform",1,0,0,0,NA,0,0,NA,0,0,0,0,21,21,NA,NA,NA,NA,0,0,0,NA,21,0,21,73.2296414732588,"Thu Sep 16 11:23:27 2021","The main experiment item","yes","red","no","3","circle",NA,"pinging_target_expectations 4.0.osexp","C:\Users\etp-cp-ping\Desktop\LocalPC-EXP",75,"no","mono","no",18,"no","white","no","yes",1050,NA,100,"psycho",21,0,21,"C:/Users/etp-cp-ping/Desktop/LocalPC-EXP/subject-14.csv","psycho",1,22,22,"Lentiform Loewenfeld","3.3.8","['vert', 'hori', 'vert', 'hori', 'vert', 'hori', 'vert', 'hori']","no",209,"None","yes",0,NA,2,"legacy",NA,1024,2,48000,-16,"experiment",14,"even","green","no",2,"diamond",492541.0918,492562.1949,492562.2348,NA,496077.1057,NA,NA,218168.551799999,3507.2110000001,NA,218168.573699999,560188.0329,563741.926000001,NA,NA,NA,NA,3507.28979999985,496892.9556,NA,NA,560188.046699999,497423.585799999,560187.984300001,"New experiment",19,"[0]","dist_present",56,34,"yes","yes",1680,NA,NA,NA,NA,"NR","NR","lp",NA,NA,NA,NA,NA,NA,"practice",5,"NR","in"
"23",1788.07410000078,25251.3651999998,25251.3651999998,19,19,"y",7,"['6', 'space']","y","#000000","no",545027.1046,1,"neutral","psycho","psycho","psycho",0,"uniform",1,0,0,0,NA,0,0,NA,0,0,0,0,22,22,NA,NA,NA,NA,0,0,0,NA,22,0,22,73.2296414732588,"Thu Sep 16 11:23:27 2021","The main experiment item","yes","red","no","1","diamond",NA,"pinging_target_expectations 4.0.osexp","C:\Users\etp-cp-ping\Desktop\LocalPC-EXP",75,"no","mono","no",18,"no","white","no","yes",1050,NA,100,"psycho",22,0,22,"C:/Users/etp-cp-ping/Desktop/LocalPC-EXP/subject-14.csv","psycho",1,23,23,"Lentiform Loewenfeld","3.3.8","['vert', 'vert', 'hori', 'vert', 'hori', 'vert', 'hori', 'hori']","yes",109,"diamond","yes",0,NA,2,"legacy",NA,1024,2,48000,-16,"experiment",14,"even","green","no",7,"circle",492541.0918,492562.1949,492562.2348,NA,496077.1057,NA,NA,218168.551799999,3507.2110000001,NA,218168.573699999,563771.9935,567565.9564,NA,NA,NA,NA,3507.28979999985,496892.9556,NA,NA,563772.0078,497423.585799999,563771.9433,"New experiment",19,"[0]","dist_present",56,82,"yes","yes",1680,NA,NA,NA,NA,"NR","NR","lp",NA,NA,NA,NA,NA,NA,"practice",2,"NR","in"
"24",1595.88769999938,26847.2528999992,26847.2528999992,20,20,"y",7,"['6', 'space']","y","#000000","no",545027.1046,1,"neutral","psycho","psycho","psycho",0,"uniform",1,0,0,0,NA,0,0,NA,0,0,0,0,23,23,NA,NA,NA,NA,0,0,0,NA,23,0,23,73.2296414732588,"Thu Sep 16 11:23:27 2021","The main experiment item","yes","red","no","5","diamond",NA,"pinging_target_expectations 4.0.osexp","C:\Users\etp-cp-ping\Desktop\LocalPC-EXP",75,"no","mono","no",18,"no","white","no","yes",1050,NA,100,"psycho",23,0,23,"C:/Users/etp-cp-ping/Desktop/LocalPC-EXP/subject-14.csv","psycho",1,24,24,"Lentiform Loewenfeld","3.3.8","['hori', 'vert', 'vert', 'hori', 'hori', 'vert', 'hori', 'vert']","no",209,"None","yes",0,NA,2,"legacy",NA,1024,2,48000,-16,"experiment",14,"even","green","no",7,"circle",492541.0918,492562.1949,492562.2348,NA,496077.1057,NA,NA,218168.551799999,3507.2110000001,NA,218168.573699999,567597.671,571134.1178,NA,NA,NA,NA,3507.28979999985,496892.9556,NA,NA,567597.6854,497423.585799999,567597.6209,"New experiment",19,"[0]","dist_present",56,86,"yes","yes",1680,NA,NA,NA,NA,"R","NR","lp",NA,NA,NA,NA,NA,NA,"practice",7,"NR","in"
"25",1089.52759999922,27936.7804999984,27936.7804999984,21,21,"y",7,"['6', 'space']","y","#000000","no",545027.1046,1,"neutral","psycho","psycho","psycho",0,"uniform",1,0,0,0,NA,0,0,NA,0,0,0,0,24,24,NA,NA,NA,NA,0,0,0,NA,24,0,24,73.2296414732588,"Thu Sep 16 11:23:27 2021","The main experiment item","yes","red","no","1","circle",NA,"pinging_target_expectations 4.0.osexp","C:\Users\etp-cp-ping\Desktop\LocalPC-EXP",75,"no","mono","no",18,"no","white","no","yes",1050,NA,100,"psycho",24,0,24,"C:/Users/etp-cp-ping/Desktop/LocalPC-EXP/subject-14.csv","psycho",1,25,25,"Lentiform Loewenfeld","3.3.8","['vert', 'hori', 'vert', 'hori', 'hori', 'vert', 'hori', 'vert']","yes",109,"circles","yes",0,NA,2,"legacy",NA,1024,2,48000,-16,"experiment",14,"even","green","no",7,"diamond",492541.0918,492562.1949,492562.2348,NA,496077.1057,NA,NA,218168.551799999,3507.2110000001,NA,218168.573699999,571169.4764,574285.9087,NA,NA,NA,NA,3507.28979999985,496892.9556,NA,NA,571169.4907,497423.585799999,571169.419399999,"New experiment",19,"[0]","dist_present",56,82,"yes","yes",1680,NA,NA,NA,NA,"R","NR","lp",NA,NA,NA,NA,NA,NA,"practice",7,"R","in"
"26",867.333699999959,28804.1141999984,28804.1141999984,22,22,"y",7,"['6', 'space']","y","#000000","no",545027.1046,1,"neutral","psycho","psycho","psycho",0,"uniform",1,0,0,0,NA,0,0,NA,0,0,0,0,25,25,NA,NA,NA,NA,0,0,0,NA,25,0,25,73.2296414732588,"Thu Sep 16 11:23:27 2021","The main experiment item","yes","red","no","6","diamond",NA,"pinging_target_expectations 4.0.osexp","C:\Users\etp-cp-ping\Desktop\LocalPC-EXP",75,"no","mono","no",18,"no","white","no","yes",1050,NA,100,"psycho",25,0,25,"C:/Users/etp-cp-ping/Desktop/LocalPC-EXP/subject-14.csv","psycho",1,26,26,"Lentiform Loewenfeld","3.3.8","['vert', 'vert', 'hori', 'vert', 'vert', 'hori', 'hori', 'hori']","no",209,"None","yes",0,NA,2,"legacy",NA,1024,2,48000,-16,"experiment",14,"even","green","no",5,"circle",492541.0918,492562.1949,492562.2348,NA,496077.1057,NA,NA,218168.551799999,3507.2110000001,NA,218168.573699999,574315.852,577101.914499999,NA,NA,NA,NA,3507.28979999985,496892.9556,NA,NA,574315.866200001,497423.585799999,574315.802199999,"New experiment",19,"[0]","dist_present",56,67,"yes","yes",1680,NA,NA,NA,NA,"NR","NR","lp",NA,NA,NA,NA,NA,NA,"practice",7,"R","in"
"27",2000.51049999997,30804.6246999984,30804.6246999984,22,22,"y",7,"['6', 'space']","y","#000000","no",578904.8265,1,"neutral","psycho","psycho","psycho",0,"uniform",0,0,0,0,NA,0,0,NA,0,0,0,0,26,26,NA,NA,NA,NA,0,0,0,NA,26,0,26,73.2296414732588,"Thu Sep 16 11:23:27 2021","The main experiment item","yes","green","no","2","diamond",NA,"pinging_target_expectations 4.0.osexp","C:\Users\etp-cp-ping\Desktop\LocalPC-EXP",75,"no","mono","no",18,"no","white","no","yes",1050,NA,100,"psycho",26,0,26,"C:/Users/etp-cp-ping/Desktop/LocalPC-EXP/subject-14.csv","psycho",3,27,27,"Lentiform Loewenfeld","3.3.8","['vert', 'hori', 'vert', 'vert', 'vert', 'hori', 'hori', 'hori']","no",209,"None","yes",0,NA,2,"legacy",NA,1024,2,48000,-16,"experiment",14,"even","red","no",0,"circle",492541.0918,492562.1949,492562.2348,NA,496077.1057,NA,NA,218168.551799999,3507.2110000001,NA,218168.573699999,577132.060899999,580956.327399999,NA,NA,NA,NA,3507.28979999985,496892.9556,NA,NA,577132.0753,497423.585799999,577132.0122,"New experiment",19,"[0]","dist_present",56,13,"yes","yes",1680,NA,NA,NA,NA,"NR","NR","lp","Left",NA,"Left",NA,NA,NA,"practice",5,"NR","in"
"28",788.667099999613,31593.291799998,31593.291799998,23,23,"y",7,"['6', 'space']","y","#000000","no",578904.8265,1,"neutral","psycho","psycho","psycho",0,"uniform",1,0,0,0,NA,0,0,NA,0,0,0,0,27,27,NA,NA,NA,NA,0,0,0,NA,27,0,27,73.2296414732588,"Thu Sep 16 11:23:27 2021","The main experiment item","yes","red","no","5","diamond",NA,"pinging_target_expectations 4.0.osexp","C:\Users\etp-cp-ping\Desktop\LocalPC-EXP",75,"no","mono","no",18,"no","white","no","yes",1050,NA,100,"psycho",27,0,27,"C:/Users/etp-cp-ping/Desktop/LocalPC-EXP/subject-14.csv","psycho",3,28,28,"Lentiform Loewenfeld","3.3.8","['hori', 'hori', 'vert', 'vert', 'hori', 'vert', 'vert', 'hori']","yes",109,"circles","yes",0,NA,2,"legacy",NA,1024,2,48000,-16,"experiment",14,"even","green","no",2,"circle",492541.0918,492562.1949,492562.2348,NA,496077.1057,NA,NA,218168.551799999,3507.2110000001,NA,218168.573699999,580986.203500001,583741.9221,NA,NA,NA,NA,3507.28979999985,496892.9556,NA,NA,580986.2175,497423.585799999,580986.155999999,"New experiment",19,"[0, 73.92606588865685, 77.04138558446772, 78.13127248257793, 78.93621009190312, 80.23948739190234, 80.28862567690727, 80.37568040147467, 80.23972480947698, 78.97853038465166, 77.86611946819653, 75.62573935912313, 75.04267633477048, 74.29272126270368, 73.30492178304117, 74.03546447480423, 73.53585315490629, 73.30823655216011, 73.89720445438122, 74.15577627719729, 74.06573036533887, 73.97899450802313, 73.40064035079664, 73.60777143830688, 73.61555542139175, 73.74035020290468, 73.32844951851675, 73.83119917541929, 73.78954853599035, 73.47514460687195]","dist_present",56,36,"yes","yes",1680,NA,NA,NA,NA,"NR","NR","lp",NA,NA,NA,NA,NA,NA,"practice",0,"NR","in"
"29",590.128299998469,32183.4200999964,32183.4200999964,24,24,"y",7,"['6', 'space']","y","#000000","no",578904.8265,1,"neutral","psycho","psycho","psycho",0,"uniform",1,0,0,0,NA,0,0,NA,0,0,0,0,28,28,NA,NA,NA,NA,0,0,0,NA,28,0,28,73.2296414732588,"Thu Sep 16 11:23:27 2021","The main experiment item","yes","red","no","None","circle",NA,"pinging_target_expectations 4.0.osexp","C:\Users\etp-cp-ping\Desktop\LocalPC-EXP",75,"no","mono","no",18,"no","white","no","yes",1050,NA,100,"psycho",28,0,28,"C:/Users/etp-cp-ping/Desktop/LocalPC-EXP/subject-14.csv","psycho",3,29,29,"Lentiform Loewenfeld","3.3.8","['vert', 'hori', 'vert', 'hori', 'hori', 'hori', 'vert', 'vert']","no",209,"None","yes",0,NA,2,"legacy",NA,1024,2,48000,-16,"experiment",14,"even","green","no",6,"diamond",492541.0918,492562.1949,492562.2348,NA,496077.1057,NA,NA,218168.551799999,3507.2110000001,NA,218168.573699999,583771.8812,586077.9559,NA,NA,NA,NA,3507.28979999985,496892.9556,NA,NA,583771.8952,497423.585799999,583771.831,"New experiment",19,"[0]","dist_absent",56,79,"yes","yes",1680,NA,NA,NA,NA,"NR","NR","lp",NA,"Right",NA,"Right",NA,NA,"practice",2,"NR","in"
"30",1424.20169999974,33607.6217999962,33607.6217999962,25,25,"y",7,"['6', 'space']","y","#000000","no",578904.8265,1,"neutral","psycho","psycho","psycho",0,"uniform",1,0,0,0,NA,0,0,NA,0,0,0,0,29,29,NA,NA,NA,NA,0,0,0,NA,29,0,29,73.2296414732588,"Thu Sep 16 11:23:27 2021","The main experiment item","yes","red","no","3","circle",NA,"pinging_target_expectations 4.0.osexp","C:\Users\etp-cp-ping\Desktop\LocalPC-EXP",75,"no","mono","no",18,"no","white","no","yes",1050,NA,100,"psycho",29,0,29,"C:/Users/etp-cp-ping/Desktop/LocalPC-EXP/subject-14.csv","psycho",3,30,30,"Lentiform Loewenfeld","3.3.8","['hori', 'vert', 'hori', 'vert', 'vert', 'vert', 'hori', 'hori']","yes",109,"diamond","yes",0,NA,2,"legacy",NA,1024,2,48000,-16,"experiment",14,"even","green","no",6,"diamond",492541.0918,492562.1949,492562.2348,NA,496077.1057,NA,NA,218168.551799999,3507.2110000001,NA,218168.573699999,586108.031,589486.0947,NA,NA,NA,NA,3507.28979999985,496892.9556,NA,NA,586108.0453,497423.585799999,586107.979799999,"New experiment",19,"[0]","dist_present",56,74,"yes","yes",1680,NA,NA,NA,NA,"R","NR","lp",NA,NA,NA,NA,NA,NA,"practice",6,"NR","in"
"31",1330.67320000019,34938.2949999964,34938.2949999964,26,26,"y",7,"['6', 'space']","y","#000000","no",589866.052400001,1,"neutral","psycho","psycho","psycho",0,"uniform",1,0,0,0,NA,0,0,NA,0,0,0,0,30,30,NA,NA,NA,NA,0,0,0,NA,30,0,30,73.2296414732588,"Thu Sep 16 11:23:27 2021","The main experiment item","yes","green","no","1","circle",NA,"pinging_target_expectations 4.0.osexp","C:\Users\etp-cp-ping\Desktop\LocalPC-EXP",75,"no","mono","no",18,"no","white","no","yes",1050,NA,100,"psycho",30,0,30,"C:/Users/etp-cp-ping/Desktop/LocalPC-EXP/subject-14.csv","psycho",4,31,31,"Lentiform Loewenfeld","3.3.8","['hori', 'hori', 'vert', 'vert', 'hori', 'vert', 'vert', 'hori']","no",209,"None","yes",0,NA,2,"legacy",NA,1024,2,48000,-16,"experiment",14,"even","red","no",7,"diamond",492541.0918,492562.1949,492562.2348,NA,496077.1057,NA,NA,218168.551799999,3507.2110000001,NA,218168.573699999,589517.6655,592605.9692,NA,NA,NA,NA,3507.28979999985,496892.9556,NA,NA,589517.6794,497423.585799999,589517.6159,"New experiment",19,"[0]","dist_present",56,82,"yes","no",1680,NA,NA,NA,NA,"NR","NR","lp",NA,NA,NA,NA,NA,NA,"practice",6,"R","in"
"32",897.193099999684,35835.4880999961,35835.4880999961,27,27,"y",7,"['6', 'space']","y","#000000","no",589866.052400001,1,"neutral","psycho","psycho","psycho",0,"uniform",1,0,0,0,NA,0,0,NA,0,0,0,0,31,31,NA,NA,NA,NA,0,0,0,NA,31,0,31,73.2296414732588,"Thu Sep 16 11:23:27 2021","The main experiment item","yes","green","no","6","circle",NA,"pinging_target_expectations 4.0.osexp","C:\Users\etp-cp-ping\Desktop\LocalPC-EXP",75,"no","mono","no",18,"no","white","no","yes",1050,NA,100,"psycho",31,0,31,"C:/Users/etp-cp-ping/Desktop/LocalPC-EXP/subject-14.csv","psycho",4,32,32,"Lentiform Loewenfeld","3.3.8","['vert', 'vert', 'hori', 'vert', 'hori', 'vert', 'hori', 'hori']","yes",109,"diamond","yes",0,NA,2,"legacy",NA,1024,2,48000,-16,"experiment",14,"even","red","no",3,"diamond",492541.0918,492562.1949,492562.2348,NA,496077.1057,NA,NA,218168.551799999,3507.2110000001,NA,218168.573699999,592635.956599999,595661.9594,NA,NA,NA,NA,3507.28979999985,496892.9556,NA,NA,592635.9706,497423.585799999,592635.907599999,"New experiment",19,"[0]","dist_present",56,47,"yes","yes",1680,NA,NA,NA,NA,"NR","NR","lp",NA,NA,NA,NA,NA,NA,"practice",7,"NR","in"
"33",1075.68490000092,36911.172999997,36911.172999997,28,28,"y",7,"['6', 'space']","y","#000000","no",589866.052400001,1,"neutral","psycho","psycho","psycho",0,"uniform",1,0,0,0,NA,0,0,NA,0,0,0,0,32,32,NA,NA,NA,NA,0,0,0,NA,32,0,32,73.2296414732588,"Thu Sep 16 11:23:27 2021","The main experiment item","yes","green","no","2","circle",NA,"pinging_target_expectations 4.0.osexp","C:\Users\etp-cp-ping\Desktop\LocalPC-EXP",75,"no","mono","no",18,"no","white","no","yes",1050,NA,100,"psycho",32,0,32,"C:/Users/etp-cp-ping/Desktop/LocalPC-EXP/subject-14.csv","psycho",4,33,33,"Lentiform Loewenfeld","3.3.8","['vert', 'hori', 'hori', 'hori', 'vert', 'vert', 'hori', 'vert']","no",209,"None","yes",0,NA,2,"legacy",NA,1024,2,48000,-16,"experiment",14,"even","red","no",3,"diamond",492541.0918,492562.1949,492562.2348,NA,496077.1057,NA,NA,218168.551799999,3507.2110000001,NA,218168.573699999,595692.1176,598589.9355,NA,NA,NA,NA,3507.28979999985,496892.9556,NA,NA,595692.1318,497423.585799999,595692.068299999,"New experiment",19,"[0]","dist_present",56,43,"yes","yes",1680,NA,NA,NA,NA,"R","NR","lp",NA,NA,NA,NA,NA,NA,"practice",3,"NR","in"
"34",803.193100000499,37714.3660999975,37714.3660999975,28,28,"y",7,"['6', 'space']","y","#000000","no",598959.2273,1,"neutral","psycho","psycho","psycho",0,"uniform",0,0,0,0,NA,0,0,NA,0,0,0,0,33,33,NA,NA,NA,NA,0,0,0,NA,33,0,33,73.2296414732588,"Thu Sep 16 11:23:27 2021","The main experiment item","yes","green","no","0","diamond",NA,"pinging_target_expectations 4.0.osexp","C:\Users\etp-cp-ping\Desktop\LocalPC-EXP",75,"no","mono","no",18,"no","white","no","yes",1050,NA,100,"psycho",33,0,33,"C:/Users/etp-cp-ping/Desktop/LocalPC-EXP/subject-14.csv","psycho",5,34,34,"Lentiform Loewenfeld","3.3.8","['vert', 'hori', 'vert', 'vert', 'hori', 'hori', 'hori', 'vert']","no",209,"None","yes",0,NA,2,"legacy",NA,1024,2,48000,-16,"experiment",14,"even","red","no",5,"circle",492541.0918,492562.1949,492562.2348,NA,496077.1057,NA,NA,218168.551799999,3507.2110000001,NA,218168.573699999,598619.9141,601229.9556,NA,NA,NA,NA,3507.28979999985,496892.9556,NA,NA,598619.9285,497423.585799999,598619.865000001,"New experiment",19,"[0]","dist_present",56,61,"yes","no",1680,NA,NA,NA,NA,"NR","NR","lp",NA,"Right",NA,NA,NA,NA,"practice",3,"R","in"
"35",2000.34580000094,39714.7118999984,39714.7118999984,28,28,"y",7,"['6', 'space']","y","#000000","no",602152.3072,1,"neutral","psycho","psycho","psycho",0,"uniform",0,0,0,0,NA,0,0,NA,0,0,0,0,34,34,NA,NA,NA,NA,0,0,0,NA,34,0,34,73.2296414732588,"Thu Sep 16 11:23:27 2021","The main experiment item","yes","red","no","None","diamond",NA,"pinging_target_expectations 4.0.osexp","C:\Users\etp-cp-ping\Desktop\LocalPC-EXP",75,"no","mono","no",18,"no","white","no","yes",1050,NA,100,"psycho",34,0,34,"C:/Users/etp-cp-ping/Desktop/LocalPC-EXP/subject-14.csv","psycho",6,35,35,"Lentiform Loewenfeld","3.3.8","['vert', 'hori', 'vert', 'hori', 'hori', 'vert', 'vert', 'hori']","yes",109,"diamond","yes",0,NA,2,"legacy",NA,1024,2,48000,-16,"experiment",14,"even","green","no",0,"circle",492541.0918,492562.1949,492562.2348,NA,496077.1057,NA,NA,218168.551799999,3507.2110000001,NA,218168.573699999,601260.079,605353.9812,NA,NA,NA,NA,3507.28979999985,496892.9556,NA,NA,601260.092999999,497423.585799999,601260.0303,"New experiment",19,"[0, 81.0454056281915, 115.56784162588961, 159.94791477820155, 206.14230849716333, 258.50128628261564, 305.37632508411025, 357.21772072505024, 407.3918469429244, 467.52328868610164, 532.569293157389, 593.0848113442697, 664.5061600453997, 740.5666771636419, 904.6292329708943, 968.993530077993, 1031.4032948889421, 1085.9369144288, 1124.002920810801]","dist_absent",56,19,"yes","no",1680,NA,NA,NA,NA,"NR","NR","lp",NA,NA,NA,NA,NA,NA,"practice",5,"NR","in"
"36",978.939499998814,40693.6513999972,40693.6513999972,29,29,"y",7,"['6', 'space']","y","#000000","no",606321.409799999,1,"neutral","psycho","psycho","psycho",0,"uniform",1,0,0,0,NA,0,0,NA,0,0,0,0,35,35,NA,NA,NA,NA,0,0,0,NA,35,0,35,73.2296414732588,"Thu Sep 16 11:23:27 2021","The main experiment item","yes","green","no","4","circle",NA,"pinging_target_expectations 4.0.osexp","C:\Users\etp-cp-ping\Desktop\LocalPC-EXP",75,"no","mono","no",18,"no","white","no","yes",1050,NA,100,"psycho",35,0,35,"C:/Users/etp-cp-ping/Desktop/LocalPC-EXP/subject-14.csv","psycho",7,36,36,"Lentiform Loewenfeld","3.3.8","['hori', 'hori', 'vert', 'vert', 'vert', 'hori', 'hori', 'vert']","yes",109,"circles","yes",0,NA,2,"legacy",NA,1024,2,48000,-16,"experiment",14,"even","red","no",0,"diamond",492541.0918,492562.1949,492562.2348,NA,496077.1057,NA,NA,218168.551799999,3507.2110000001,NA,218168.573699999,605383.892100001,608365.935899999,NA,NA,NA,NA,3507.28979999985,496892.9556,NA,NA,605383.906200001,497423.585799999,605383.841700001,"New experiment",19,"[0]","dist_present",56,15,"yes","yes",1680,NA,NA,NA,NA,"R","NR","lp",NA,NA,NA,NA,NA,NA,"practice",0,"NR","in"
"37",642.624300000607,41336.2756999978,41336.2756999978,29,29,"y",7,"['6', 'space']","y","#000000","no",606321.409799999,1,"neutral","psycho","psycho","psycho",0,"uniform",0,0,0,0,NA,0,0,NA,0,0,0,0,36,36,NA,NA,NA,NA,0,0,0,NA,36,0,36,73.2296414732588,"Thu Sep 16 11:23:27 2021","The main experiment item","yes","green","no","None","circle",NA,"pinging_target_expectations 4.0.osexp","C:\Users\etp-cp-ping\Desktop\LocalPC-EXP",75,"no","mono","no",18,"no","white","no","yes",1050,NA,100,"psycho",36,0,36,"C:/Users/etp-cp-ping/Desktop/LocalPC-EXP/subject-14.csv","psycho",7,37,37,"Lentiform Loewenfeld","3.3.8","['hori', 'vert', 'vert', 'hori', 'vert', 'vert', 'hori', 'hori']","yes",109,"diamond","yes",0,NA,2,"legacy",NA,1024,2,48000,-16,"experiment",14,"even","red","no",6,"diamond",492541.0918,492562.1949,492562.2348,NA,496077.1057,NA,NA,218168.551799999,3507.2110000001,NA,218168.573699999,608396.134099999,610957.9282,NA,NA,NA,NA,3507.28979999985,496892.9556,NA,NA,608396.148199999,497423.585799999,608396.085799999,"New experiment",19,"[0]","dist_absent",56,79,"yes","yes",1680,NA,NA,NA,NA,"NR","NR","lp",NA,"Right",NA,"Right",NA,NA,"practice",0,"R","in"
"38",887.286600000225,42223.5622999981,42223.5622999981,30,30,"y",7,"['6', 'space']","y","#000000","no",611991.5067,1,"neutral","psycho","psycho","psycho",0,"uniform",1,0,0,0,NA,0,0,NA,0,0,0,0,37,37,NA,NA,NA,NA,0,0,0,NA,37,0,37,73.2296414732588,"Thu Sep 16 11:23:27 2021","The main experiment item","yes","green","no","1","circle",NA,"pinging_target_expectations 4.0.osexp","C:\Users\etp-cp-ping\Desktop\LocalPC-EXP",75,"no","mono","no",18,"no","white","no","yes",1050,NA,100,"psycho",37,0,37,"C:/Users/etp-cp-ping/Desktop/LocalPC-EXP/subject-14.csv","psycho",8,38,38,"Lentiform Loewenfeld","3.3.8","['vert', 'vert', 'vert', 'hori', 'vert', 'hori', 'hori', 'hori']","no",209,"None","yes",0,NA,2,"legacy",NA,1024,2,48000,-16,"experiment",14,"even","red","no",6,"diamond",492541.0918,492562.1949,492562.2348,NA,496077.1057,NA,NA,218168.551799999,3507.2110000001,NA,218168.573699999,610988.023899999,613821.981999999,NA,NA,NA,NA,3507.28979999985,496892.9556,NA,NA,610988.037999999,497423.585799999,610987.973499999,"New experiment",19,"[0]","dist_present",56,72,"yes","yes",1680,NA,NA,NA,NA,"R","NR","lp",NA,NA,NA,NA,NA,NA,"practice",6,"NR","in"
"39",818.109599998919,43041.671899997,43041.671899997,31,31,"y",7,"['6', 'space']","y","#000000","no",611991.5067,1,"neutral","psycho","psycho","psycho",0,"uniform",1,0,0,0,NA,0,0,NA,0,0,0,0,38,38,NA,NA,NA,NA,0,0,0,NA,38,0,38,73.2296414732588,"Thu Sep 16 11:23:27 2021","The main experiment item","yes","red","no","None","diamond",NA,"pinging_target_expectations 4.0.osexp","C:\Users\etp-cp-ping\Desktop\LocalPC-EXP",75,"no","mono","no",18,"no","white","no","yes",1050,NA,100,"psycho",38,0,38,"C:/Users/etp-cp-ping/Desktop/LocalPC-EXP/subject-14.csv","psycho",8,39,39,"Lentiform Loewenfeld","3.3.8","['hori', 'vert', 'hori', 'vert', 'vert', 'hori', 'hori', 'vert']","yes",109,"diamond","yes",0,NA,2,"legacy",NA,1024,2,48000,-16,"experiment",14,"even","green","no",1,"circle",492541.0918,492562.1949,492562.2348,NA,496077.1057,NA,NA,218168.551799999,3507.2110000001,NA,218168.573699999,613851.998,616669.928199999,NA,NA,NA,NA,3507.28979999985,496892.9556,NA,NA,613852.0121,497423.585799999,613851.9495,"New experiment",19,"[0]","dist_absent",56,29,"yes","yes",1680,NA,NA,NA,NA,"NR","NR","lp",NA,"Left",NA,NA,NA,NA,"practice",6,"R","in"
"40",1597.20860000013,44638.8804999971,44638.8804999971,32,32,"y",7,"['6', 'space']","y","#000000","no",611991.5067,1,"neutral","psycho","psycho","psycho",0,"uniform",1,0,0,0,NA,0,0,NA,0,0,0,0,39,39,NA,NA,NA,NA,0,0,0,NA,39,0,39,73.2296414732588,"Thu Sep 16 11:23:27 2021","The main experiment item","yes","red","no","None","diamond",NA,"pinging_target_expectations 4.0.osexp","C:\Users\etp-cp-ping\Desktop\LocalPC-EXP",75,"no","mono","no",18,"no","white","no","yes",1050,NA,100,"psycho",39,0,39,"C:/Users/etp-cp-ping/Desktop/LocalPC-EXP/subject-14.csv","psycho",8,40,40,"Lentiform Loewenfeld","3.3.8","['hori', 'vert', 'vert', 'hori', 'hori', 'vert', 'hori', 'vert']","yes",109,"circles","yes",0,NA,2,"legacy",NA,1024,2,48000,-16,"experiment",14,"even","green","no",7,"circle",492541.0918,492562.1949,492562.2348,NA,496077.1057,NA,NA,218168.551799999,3507.2110000001,NA,218168.573699999,616700.106,619933.979699999,NA,NA,NA,NA,3507.28979999985,496892.9556,NA,NA,616700.1198,497423.585799999,616700.057,"New experiment",19,"[0]","dist_absent",56,89,"yes","yes",1680,NA,NA,NA,NA,"NR","R","lp",NA,"Right",NA,NA,NA,NA,"practice",1,"NR","in"
"41",858.473500000429,45497.3539999975,45497.3539999975,33,33,"y",7,"['6', 'space']","y","#000000","no",611991.5067,1,"neutral","psycho","psycho","psycho",0,"uniform",1,0,0,0,NA,0,0,NA,0,0,0,0,40,40,NA,NA,NA,NA,0,0,0,NA,40,0,40,73.2296414732588,"Thu Sep 16 11:23:27 2021","The main experiment item","yes","red","no","5","circle",NA,"pinging_target_expectations 4.0.osexp","C:\Users\etp-cp-ping\Desktop\LocalPC-EXP",75,"no","mono","no",18,"no","white","no","yes",1050,NA,100,"psycho",40,0,40,"C:/Users/etp-cp-ping/Desktop/LocalPC-EXP/subject-14.csv","psycho",8,41,41,"Lentiform Loewenfeld","3.3.8","['vert', 'hori', 'hori', 'hori', 'vert', 'vert', 'hori', 'vert']","no",209,"None","yes",0,NA,2,"legacy",NA,1024,2,48000,-16,"experiment",14,"even","green","no",1,"diamond",492541.0918,492562.1949,492562.2348,NA,496077.1057,NA,NA,218168.551799999,3507.2110000001,NA,218168.573699999,619964.1429,622717.9421,NA,NA,NA,NA,3507.28979999985,496892.9556,NA,NA,619964.157,497423.585799999,619964.0943,"New experiment",19,"[0]","dist_present",56,26,"yes","yes",1680,NA,NA,NA,NA,"NR","NR","lp",NA,NA,NA,NA,NA,NA,"practice",7,"NR","in"
"42",716.060399999958,46213.4143999975,46213.4143999975,34,34,"y",7,"['6', 'space']","y","#000000","no",611991.5067,1,"neutral","psycho","psycho","psycho",0,"uniform",1,0,0,0,NA,0,0,NA,0,0,0,0,41,41,NA,NA,NA,NA,0,0,0,NA,41,0,41,73.2296414732588,"Thu Sep 16 11:23:27 2021","The main experiment item","yes","red","no","4","circle",NA,"pinging_target_expectations 4.0.osexp","C:\Users\etp-cp-ping\Desktop\LocalPC-EXP",75,"no","mono","no",18,"no","white","no","yes",1050,NA,100,"psycho",41,0,41,"C:/Users/etp-cp-ping/Desktop/LocalPC-EXP/subject-14.csv","psycho",8,42,42,"Lentiform Loewenfeld","3.3.8","['hori', 'hori', 'vert', 'vert', 'vert', 'hori', 'vert', 'hori']","yes",109,"diamond","yes",0,NA,2,"legacy",NA,1024,2,48000,-16,"experiment",14,"even","green","no",3,"diamond",492541.0918,492562.1949,492562.2348,NA,496077.1057,NA,NA,218168.551799999,3507.2110000001,NA,218168.573699999,622748.1121,625358.0986,NA,NA,NA,NA,3507.28979999985,496892.9556,NA,NA,622748.126299999,497423.585799999,622748.060599999,"New experiment",19,"[0]","dist_present",56,45,"yes","yes",1680,NA,NA,NA,NA,"NR","NR","lp",NA,"Left",NA,NA,NA,NA,"practice",1,"NR","in"
"43",704.443300000974,46917.8576999985,46917.8576999985,35,35,"y",7,"['6', 'space']","y","#000000","no",611991.5067,1,"neutral","psycho","psycho","psycho",0,"uniform",1,0,0,0,NA,0,0,NA,0,0,0,0,42,42,NA,NA,NA,NA,0,0,0,NA,42,0,42,73.2296414732588,"Thu Sep 16 11:23:27 2021","The main experiment item","yes","green","no","5","circle",NA,"pinging_target_expectations 4.0.osexp","C:\Users\etp-cp-ping\Desktop\LocalPC-EXP",75,"no","mono","no",18,"no","white","no","yes",1050,NA,100,"psycho",42,0,42,"C:/Users/etp-cp-ping/Desktop/LocalPC-EXP/subject-14.csv","psycho",8,43,43,"Lentiform Loewenfeld","3.3.8","['hori', 'vert', 'hori', 'vert', 'vert', 'vert', 'hori', 'hori']","no",209,"None","yes",0,NA,2,"legacy",NA,1024,2,48000,-16,"experiment",14,"even","red","no",4,"diamond",492541.0918,492562.1949,492562.2348,NA,496077.1057,NA,NA,218168.551799999,3507.2110000001,NA,218168.573699999,625388.343299999,627821.9369,NA,NA,NA,NA,3507.28979999985,496892.9556,NA,NA,625388.3575,497423.585799999,625388.2944,"New experiment",19,"[0]","dist_present",56,56,"yes","yes",1680,NA,NA,NA,NA,"NR","NR","lp","Right",NA,NA,NA,NA,NA,"practice",3,"NR","in"
"44",794.496000000392,47712.3536999989,47712.3536999989,36,36,"y",7,"['6', 'space']","y","#000000","no",611991.5067,1,"neutral","psycho","psycho","psycho",0,"uniform",1,0,0,0,NA,0,0,NA,0,0,0,0,43,43,NA,NA,NA,NA,0,0,0,NA,43,0,43,73.2296414732588,"Thu Sep 16 11:23:27 2021","The main experiment item","yes","green","no","6","circle",NA,"pinging_target_expectations 4.0.osexp","C:\Users\etp-cp-ping\Desktop\LocalPC-EXP",75,"no","mono","no",18,"no","white","no","yes",1050,NA,100,"psycho",43,0,43,"C:/Users/etp-cp-ping/Desktop/LocalPC-EXP/subject-14.csv","psycho",8,44,44,"Lentiform Loewenfeld","3.3.8","['vert', 'hori', 'vert', 'hori', 'hori', 'hori', 'vert', 'vert']","no",209,"None","yes",0,NA,2,"legacy",NA,1024,2,48000,-16,"experiment",14,"even","red","no",4,"diamond",492541.0918,492562.1949,492562.2348,NA,496077.1057,NA,NA,218168.551799999,3507.2110000001,NA,218168.573699999,627852.093699999,630430.005799999,NA,NA,NA,NA,3507.28979999985,496892.9556,NA,NA,627852.1081,497423.585799999,627852.0443,"New experiment",19,"[0]","dist_present",56,57,"yes","yes",1680,NA,NA,NA,NA,"R","NR","lp","Right",NA,"Right",NA,NA,NA,"practice",4,"NR","in"
"45",692.909900000785,48405.2635999997,48405.2635999997,37,37,"y",7,"['6', 'space']","y","#000000","no",611991.5067,1,"neutral","psycho","psycho","psycho",0,"uniform",1,0,0,0,NA,0,0,NA,0,0,0,0,44,44,NA,NA,NA,NA,0,0,0,NA,44,0,44,73.2296414732588,"Thu Sep 16 11:23:27 2021","The main experiment item","yes","red","no","0","circle",NA,"pinging_target_expectations 4.0.osexp","C:\Users\etp-cp-ping\Desktop\LocalPC-EXP",75,"no","mono","no",18,"no","white","no","yes",1050,NA,100,"psycho",44,0,44,"C:/Users/etp-cp-ping/Desktop/LocalPC-EXP/subject-14.csv","psycho",8,45,45,"Lentiform Loewenfeld","3.3.8","['hori', 'vert', 'vert', 'vert', 'hori', 'hori', 'hori', 'vert']","yes",109,"circles","yes",0,NA,2,"legacy",NA,1024,2,48000,-16,"experiment",14,"even","green","no",3,"diamond",492541.0918,492562.1949,492562.2348,NA,496077.1057,NA,NA,218168.551799999,3507.2110000001,NA,218168.573699999,630461.8957,632781.9953,NA,NA,NA,NA,3507.28979999985,496892.9556,NA,NA,630461.9098,497423.585799999,630461.8465,"New experiment",19,"[0]","dist_present",56,41,"yes","yes",1680,NA,NA,NA,NA,"NR","NR","lp",NA,"Left",NA,NA,NA,NA,"practice",4,"R","in"
"46",845.104100000812,49250.3677000005,49250.3677000005,37,37,"y",7,"['6', 'space']","y","#000000","no",633421.949699999,1,"neutral","psycho","psycho","psycho",0,"uniform",0,0,0,0,NA,0,0,NA,0,0,0,0,45,45,NA,NA,NA,NA,0,0,0,NA,45,0,45,73.2296414732588,"Thu Sep 16 11:23:27 2021","The main experiment item","yes","green","no","None","circle",NA,"pinging_target_expectations 4.0.osexp","C:\Users\etp-cp-ping\Desktop\LocalPC-EXP",75,"no","mono","no",18,"no","white","no","yes",1050,NA,100,"psycho",45,0,45,"C:/Users/etp-cp-ping/Desktop/LocalPC-EXP/subject-14.csv","psycho",9,46,46,"Lentiform Loewenfeld","3.3.8","['vert', 'vert', 'vert', 'hori', 'hori', 'vert', 'hori', 'hori']","no",209,"None","yes",0,NA,2,"legacy",NA,1024,2,48000,-16,"experiment",14,"even","red","no",7,"diamond",492541.0918,492562.1949,492562.2348,NA,496077.1057,NA,NA,218168.551799999,3507.2110000001,NA,218168.573699999,632812.2291,635662.002900001,NA,NA,NA,NA,3507.28979999985,496892.9556,NA,NA,632812.243,497423.585799999,632812.180499999,"New experiment",19,"[0, 910.6029947253008, 972.9423945061416, 1027.7577935888958, 1081.8878176594835, 1117.068075380449, 1126.9910948331635]","dist_absent",56,89,"yes","no",1680,NA,NA,NA,NA,"NR","NR","lp",NA,"Right",NA,NA,NA,NA,"practice",3,"NR","in"
"47",1298.98219999997,50549.3499000004,50549.3499000004,38,38,"y",7,"['6', 'space']","y","#000000","no",636364.027600001,1,"neutral","psycho","psycho","psycho",0,"uniform",1,0,0,0,NA,0,0,NA,0,0,0,0,46,46,NA,NA,NA,NA,0,0,0,NA,46,0,46,73.2296414732588,"Thu Sep 16 11:23:27 2021","The main experiment item","yes","green","no","None","diamond",NA,"pinging_target_expectations 4.0.osexp","C:\Users\etp-cp-ping\Desktop\LocalPC-EXP",75,"no","mono","no",18,"no","white","no","yes",1050,NA,100,"psycho",46,0,46,"C:/Users/etp-cp-ping/Desktop/LocalPC-EXP/subject-14.csv","psycho",10,47,47,"Lentiform Loewenfeld","3.3.8","['vert', 'hori', 'vert', 'vert', 'vert', 'hori', 'hori', 'hori']","yes",109,"diamond","yes",0,NA,2,"legacy",NA,1024,2,48000,-16,"experiment",14,"even","red","no",7,"circle",492541.0918,492562.1949,492562.2348,NA,496077.1057,NA,NA,218168.551799999,3507.2110000001,NA,218168.573699999,635692.262999999,638925.975300001,NA,NA,NA,NA,3507.28979999985,496892.9556,NA,NA,635692.277099999,497423.585799999,635692.213,"New experiment",19,"[0, 79.33346261834517, 108.61390181725841, 147.35892927843406, 186.67246307819596, 228.5331212853288, 272.661336780989, 318.356601395127, 369.3704131185971, 422.44569716211083, 484.55779118999874, 547.496446950874, 612.6104350995593, 695.2820534257432, 772.1290857483575, 956.4650657956123, 1027.0930366667078, 1098.389472723161, 1155.2634140493963, 1177.7590647930292, 1224.9421419651264, 1280.9273295693624]","dist_absent",56,89,"yes","no",1680,NA,NA,NA,NA,"R","R","lp",NA,"Right",NA,NA,NA,NA,"practice",7,"NR","in"
"48",911.396100000362,51460.7460000008,51460.7460000008,39,39,"y",7,"['6', 'space']","y","#000000","no",636364.027600001,1,"neutral","psycho","psycho","psycho",0,"uniform",1,0,0,0,NA,0,0,NA,0,0,0,0,47,47,NA,NA,NA,NA,0,0,0,NA,47,0,47,73.2296414732588,"Thu Sep 16 11:23:27 2021","The main experiment item","yes","red","no","0","circle",NA,"pinging_target_expectations 4.0.osexp","C:\Users\etp-cp-ping\Desktop\LocalPC-EXP",75,"no","mono","no",18,"no","white","no","yes",1050,NA,100,"psycho",47,0,47,"C:/Users/etp-cp-ping/Desktop/LocalPC-EXP/subject-14.csv","psycho",10,48,48,"Lentiform Loewenfeld","3.3.8","['hori', 'hori', 'vert', 'vert', 'vert', 'hori', 'hori', 'vert']","no",209,"None","yes",0,NA,2,"legacy",NA,1024,2,48000,-16,"experiment",14,"even","green","no",6,"diamond",492541.0918,492562.1949,492562.2348,NA,496077.1057,NA,NA,218168.551799999,3507.2110000001,NA,218168.573699999,638956.2176,641790.023,NA,NA,NA,NA,3507.28979999985,496892.9556,NA,NA,638956.2312,497423.585799999,638956.168999999,"New experiment",19,"[0]","dist_present",56,71,"yes","yes",1680,NA,NA,NA,NA,"NR","NR","lp",NA,"Right",NA,"Right",NA,NA,"practice",7,"R","in"
"49",838.626799999503,52299.3728000003,52299.3728000003,40,40,"y",7,"['6', 'space']","y","#000000","no",636364.027600001,1,"neutral","psycho","psycho","psycho",0,"uniform",1,0,0,0,NA,0,0,NA,0,0,0,0,48,48,NA,NA,NA,NA,0,0,0,NA,48,0,48,73.2296414732588,"Thu Sep 16 11:23:27 2021","The main experiment item","yes","green","no","None","diamond",NA,"pinging_target_expectations 4.0.osexp","C:\Users\etp-cp-ping\Desktop\LocalPC-EXP",75,"no","mono","no",18,"no","white","no","yes",1050,NA,100,"psycho",48,0,48,"C:/Users/etp-cp-ping/Desktop/LocalPC-EXP/subject-14.csv","psycho",10,49,49,"Lentiform Loewenfeld","3.3.8","['hori', 'vert', 'vert', 'hori', 'hori', 'hori', 'vert', 'vert']","no",209,"None","yes",0,NA,2,"legacy",NA,1024,2,48000,-16,"experiment",14,"even","red","no",3,"circle",492541.0918,492562.1949,492562.2348,NA,496077.1057,NA,NA,218168.551799999,3507.2110000001,NA,218168.573699999,641820.223499999,644541.981599999,NA,NA,NA,NA,3507.28979999985,496892.9556,NA,NA,641820.2373,497423.585799999,641820.1758,"New experiment",19,"[0]","dist_absent",56,49,"yes","yes",1680,NA,NA,NA,NA,"NR","NR","lp",NA,"Left",NA,NA,NA,NA,"practice",6,"NR","in"
"50",1156.65679999976,53456.0296000001,53456.0296000001,41,41,"y",7,"['6', 'space']","y","#000000","no",645848.2427,1,"neutral","psycho","psycho","psycho",0,"uniform",1,0,0,0,NA,0,0,NA,0,0,0,0,49,49,NA,NA,NA,NA,0,0,0,NA,49,0,49,73.2296414732588,"Thu Sep 16 11:23:27 2021","The main experiment item","yes","red","no","3","circle",NA,"pinging_target_expectations 4.0.osexp","C:\Users\etp-cp-ping\Desktop\LocalPC-EXP",75,"no","mono","no",18,"no","white","no","yes",1050,NA,100,"psycho",49,0,49,"C:/Users/etp-cp-ping/Desktop/LocalPC-EXP/subject-14.csv","psycho",11,50,50,"Lentiform Loewenfeld","3.3.8","['vert', 'vert', 'hori', 'vert', 'hori', 'hori', 'vert', 'hori']","no",209,"None","yes",0,NA,2,"legacy",NA,1024,2,48000,-16,"experiment",14,"even","green","no",5,"diamond",492541.0918,492562.1949,492562.2348,NA,496077.1057,NA,NA,218168.551799999,3507.2110000001,NA,218168.573699999,644573.440099999,647550.015999999,NA,NA,NA,NA,3507.28979999985,496892.9556,NA,NA,644573.454199999,497423.585799999,644573.3905,"New experiment",19,"[0, 88.17352855418969, 132.5232713570453, 179.84926575762236, 230.33790323776358, 282.22349492277664, 333.513492980419, 383.3852908978846, 434.604139309872, 489.685002296997, 548.9311341854526, 606.6717274625101, 668.0815056878843, 731.0184717535694, 805.0565643158548, 959.9325686264723, 1009.9545329792352, 1063.374558999346, 1110.1871703679124, 1127.0898920643826, 1183.5862921490495]","dist_present",56,64,"yes","no",1680,NA,NA,NA,NA,"NR","NR","lp",NA,NA,NA,NA,NA,NA,"practice",3,"NR","in"
"51",896.728300000192,54352.7579000003,54352.7579000003,42,42,"y",7,"['6', 'space']","y","#000000","no",648305.2745,1,"neutral","psycho","psycho","psycho",0,"uniform",1,0,0,0,NA,0,0,NA,0,0,0,0,50,50,NA,NA,NA,NA,0,0,0,NA,50,0,50,73.2296414732588,"Thu Sep 16 11:23:27 2021","The main experiment item","yes","red","no","None","diamond",NA,"pinging_target_expectations 4.0.osexp","C:\Users\etp-cp-ping\Desktop\LocalPC-EXP",75,"no","mono","no",18,"no","white","no","yes",1050,NA,100,"psycho",50,0,50,"C:/Users/etp-cp-ping/Desktop/LocalPC-EXP/subject-14.csv","psycho",12,51,51,"Lentiform Loewenfeld","3.3.8","['hori', 'vert', 'hori', 'vert', 'vert', 'hori', 'hori', 'vert']","yes",109,"circles","yes",0,NA,2,"legacy",NA,1024,2,48000,-16,"experiment",14,"even","green","no",0,"circle",492541.0918,492562.1949,492562.2348,NA,496077.1057,NA,NA,218168.551799999,3507.2110000001,NA,218168.573699999,647580.2836,650302.0101,NA,NA,NA,NA,3507.28979999985,496892.9556,NA,NA,647580.2976,497423.585799999,647580.234999999,"New experiment",19,"[0, 88.66074127514008, 130.7995632619315, 176.53195841350905, 228.08223426198433, 282.60822789443614, 333.7744667266693, 388.0177639070441, 446.04063716213125, 509.10635189424147, 575.3309293223023, 644.4697161535702, 721.4558123745245, 800.7853169774777, 962.8967506841157, 1025.7264761699464, 1084.72384699888, 1126.9060025135093, 1152.6948483194874, 1201.5328217243625, 1231.47584922983]","dist_absent",56,19,"yes","no",1680,NA,NA,NA,NA,"NR","NR","lp",NA,NA,NA,NA,NA,NA,"practice",5,"NR","in"
"52",1636.52870000072,55989.286600001,55989.286600001,43,43,"y",7,"['6', 'space']","y","#000000","no",648305.2745,1,"neutral","psycho","psycho","psycho",0,"uniform",1,0,0,0,NA,0,0,NA,0,0,0,0,51,51,NA,NA,NA,NA,0,0,0,NA,51,0,51,73.2296414732588,"Thu Sep 16 11:23:27 2021","The main experiment item","yes","green","no","5","diamond",NA,"pinging_target_expectations 4.0.osexp","C:\Users\etp-cp-ping\Desktop\LocalPC-EXP",75,"no","mono","no",18,"no","white","no","yes",1050,NA,100,"psycho",51,0,51,"C:/Users/etp-cp-ping/Desktop/LocalPC-EXP/subject-14.csv","psycho",12,52,52,"Lentiform Loewenfeld","3.3.8","['vert', 'hori', 'vert', 'vert', 'vert', 'hori', 'hori', 'hori']","yes",109,"diamond","yes",0,NA,2,"legacy",NA,1024,2,48000,-16,"experiment",14,"even","red","no",3,"circle",492541.0918,492562.1949,492562.2348,NA,496077.1057,NA,NA,218168.551799999,3507.2110000001,NA,218168.573699999,650332.2186,653870.011999999,NA,NA,NA,NA,3507.28979999985,496892.9556,NA,NA,650332.2326,497423.585799999,650332.1693,"New experiment",19,"[0]","dist_present",56,46,"yes","yes",1680,NA,NA,NA,NA,"NR","NR","lp",NA,NA,NA,NA,NA,NA,"practice",0,"NR","in"
"53",1267.3298999999,57256.6165000009,57256.6165000009,44,44,"y",7,"['6', 'space']","y","#000000","no",648305.2745,1,"neutral","psycho","psycho","psycho",0,"uniform",1,0,0,0,NA,0,0,NA,0,0,0,0,52,52,NA,NA,NA,NA,0,0,0,NA,52,0,52,73.2296414732588,"Thu Sep 16 11:23:27 2021","The main experiment item","yes","green","no","2","diamond",NA,"pinging_target_expectations 4.0.osexp","C:\Users\etp-cp-ping\Desktop\LocalPC-EXP",75,"no","mono","no",18,"no","white","no","yes",1050,NA,100,"psycho",52,0,52,"C:/Users/etp-cp-ping/Desktop/LocalPC-EXP/subject-14.csv","psycho",12,53,53,"Lentiform Loewenfeld","3.3.8","['vert', 'vert', 'hori', 'vert', 'hori', 'hori', 'hori', 'vert']","no",209,"None","yes",0,NA,2,"legacy",NA,1024,2,48000,-16,"experiment",14,"even","red","no",4,"circle",492541.0918,492562.1949,492562.2348,NA,496077.1057,NA,NA,218168.551799999,3507.2110000001,NA,218168.573699999,653900.1195,657006.0001,NA,NA,NA,NA,3507.28979999985,496892.9556,NA,NA,653900.1338,497423.585799999,653900.069199999,"New experiment",19,"[0]","dist_present",56,53,"yes","yes",1680,NA,NA,NA,NA,"NR","NR","lp","Left",NA,"Left",NA,NA,NA,"practice",3,"NR","in"
"54",887.914799999562,58144.5313000004,58144.5313000004,45,45,"y",7,"['6', 'space']","y","#000000","no",657407.486300001,1,"neutral","psycho","psycho","psycho",0,"uniform",1,0,0,0,NA,0,0,NA,0,0,0,0,53,53,NA,NA,NA,NA,0,0,0,NA,53,0,53,73.2296414732588,"Thu Sep 16 11:23:27 2021","The main experiment item","yes","green","no","7","circle",NA,"pinging_target_expectations 4.0.osexp","C:\Users\etp-cp-ping\Desktop\LocalPC-EXP",75,"no","mono","no",18,"no","white","no","yes",1050,NA,100,"psycho",53,0,53,"C:/Users/etp-cp-ping/Desktop/LocalPC-EXP/subject-14.csv","psycho",13,54,54,"Lentiform Loewenfeld","3.3.8","['hori', 'hori', 'hori', 'vert', 'vert', 'vert', 'vert', 'hori']","no",209,"None","yes",0,NA,2,"legacy",NA,1024,2,48000,-16,"experiment",14,"even","red","no",5,"diamond",492541.0918,492562.1949,492562.2348,NA,496077.1057,NA,NA,218168.551799999,3507.2110000001,NA,218168.573699999,657036.499100001,659613.9793,NA,NA,NA,NA,3507.28979999985,496892.9556,NA,NA,657036.513200001,497423.585799999,657036.45,"New experiment",19,"[0]","dist_present",56,68,"yes","no",1680,NA,NA,NA,NA,"NR","NR","lp",NA,NA,NA,NA,NA,NA,"practice",4,"NR","in"
"55",604.519899999956,58749.0512000004,58749.0512000004,46,46,"y",7,"['6', 'space']","y","#000000","no",660146.5272,1,"neutral","psycho","psycho","psycho",0,"uniform",1,0,0,0,NA,0,0,NA,0,0,0,0,54,54,NA,NA,NA,NA,0,0,0,NA,54,0,54,73.2296414732588,"Thu Sep 16 11:23:27 2021","The main experiment item","yes","green","no","None","circle",NA,"pinging_target_expectations 4.0.osexp","C:\Users\etp-cp-ping\Desktop\LocalPC-EXP",75,"no","mono","no",18,"no","white","no","yes",1050,NA,100,"psycho",54,0,54,"C:/Users/etp-cp-ping/Desktop/LocalPC-EXP/subject-14.csv","psycho",14,55,55,"Lentiform Loewenfeld","3.3.8","['hori', 'vert', 'hori', 'vert', 'hori', 'vert', 'vert', 'hori']","no",209,"None","yes",0,NA,2,"legacy",NA,1024,2,48000,-16,"experiment",14,"even","red","no",5,"diamond",492541.0918,492562.1949,492562.2348,NA,496077.1057,NA,NA,218168.551799999,3507.2110000001,NA,218168.573699999,659645.8516,662077.9886,NA,NA,NA,NA,3507.28979999985,496892.9556,NA,NA,659645.865799999,497423.585799999,659645.8021,"New experiment",19,"[0, 85.90369796875905, 142.81571468790366, 204.38505326955786, 270.0600030711502, 340.07058734898465, 417.72774938639475, 507.39829550920376, 602.0966737907183, 711.239307452719, 919.278857071851, 1031.5973808826286, 1135.8532710196916, 1217.1539070952078, 1286.6949870894143]","dist_absent",56,69,"yes","no",1680,NA,NA,NA,NA,"R","NR","lp",NA,"Right",NA,NA,NA,NA,"practice",5,"NR","in"
"56",676.211199999787,59425.2624000002,59425.2624000002,47,47,"y",7,"['6', 'space']","y","#000000","no",660146.5272,1,"neutral","psycho","psycho","psycho",0,"uniform",1,0,0,0,NA,0,0,NA,0,0,0,0,55,55,NA,NA,NA,NA,0,0,0,NA,55,0,55,73.2296414732588,"Thu Sep 16 11:23:27 2021","The main experiment item","yes","green","no","1","circle",NA,"pinging_target_expectations 4.0.osexp","C:\Users\etp-cp-ping\Desktop\LocalPC-EXP",75,"no","mono","no",18,"no","white","no","yes",1050,NA,100,"psycho",55,0,55,"C:/Users/etp-cp-ping/Desktop/LocalPC-EXP/subject-14.csv","psycho",14,56,56,"Lentiform Loewenfeld","3.3.8","['vert', 'hori', 'vert', 'hori', 'vert', 'hori', 'hori', 'vert']","yes",109,"diamond","yes",0,NA,2,"legacy",NA,1024,2,48000,-16,"experiment",14,"even","red","no",2,"diamond",492541.0918,492562.1949,492562.2348,NA,496077.1057,NA,NA,218168.551799999,3507.2110000001,NA,218168.573699999,662108.2604,664733.9672,NA,NA,NA,NA,3507.28979999985,496892.9556,NA,NA,662108.274599999,497423.585799999,662108.212499999,"New experiment",19,"[0]","dist_present",56,32,"yes","yes",1680,NA,NA,NA,NA,"NR","NR","lp",NA,NA,NA,NA,NA,NA,"practice",5,"R","in"
"57",633.539500000537,633.539500000537,60058.8019000007,1,48,"y",7,"['6', 'space']","y","#000000","no",660146.5272,2,"bias","psycho","psycho","psycho",0,"uniform",1,0,1,1,NA,1,0,NA,0,0,1,0,56,56,NA,NA,NA,NA,0,1,1,NA,56,1,56,73.2296414732588,"Thu Sep 16 11:23:27 2021","The main experiment item","yes","red","no","6","diamond",NA,"pinging_target_expectations 4.0.osexp","C:\Users\etp-cp-ping\Desktop\LocalPC-EXP",75,"no","mono","no",18,"no","white","no","yes",1050,NA,4,"psycho",0,1,0,"C:/Users/etp-cp-ping/Desktop/LocalPC-EXP/subject-14.csv","psycho",0,57,1,"Lentiform Loewenfeld","3.3.8","['vert', 'vert', 'vert', 'hori', 'hori', 'hori', 'vert', 'hori']","no",204,"None","no",0,NA,2,"legacy",NA,1024,2,48000,-16,"experiment",14,"even","green","no",0,"circle",492541.0918,737585.218300001,737585.2667,NA,738058.1798,NA,NA,218168.551799999,3507.2110000001,665273.265899999,218168.573699999,774595.877,777022.069299999,NA,NA,NA,NA,3507.28979999985,774060.7617,664763.4776,NA,774595.8921,774591.558099999,774595.8348,"New experiment",19,"[0]","dist_present",56,17,"yes","yes",1680,16.8108407921809,-15.0272106481482,"more away","False","NR","NR","lp","Right",NA,"Right",NA,4,-2,"first",999,"NR","in"
"58",1002.70050000108,1636.24000000162,61061.5024000018,2,49,"y",7,"['6', 'space']","y","#000000","no",777859.034699999,2,"bias","psycho","psycho","psycho",0,"uniform",1,0,1,1,NA,1,0,NA,0,0,1,0,57,57,NA,NA,NA,NA,0,1,1,NA,57,1,57,73.2296414732588,"Thu Sep 16 11:23:27 2021","The main experiment item","yes","green","no","1","circle",NA,"pinging_target_expectations 4.0.osexp","C:\Users\etp-cp-ping\Desktop\LocalPC-EXP",75,"no","mono","no",18,"no","white","no","yes",1050,NA,4,"psycho",1,1,1,"C:/Users/etp-cp-ping/Desktop/LocalPC-EXP/subject-14.csv","psycho",1,58,2,"Lentiform Loewenfeld","3.3.8","['vert', 'hori', 'vert', 'vert', 'hori', 'vert', 'hori', 'hori']","no",204,"None","no",0,NA,2,"legacy",NA,1024,2,48000,-16,"experiment",14,"even","red","yes",4,"diamond",492541.0918,737585.218300001,737585.2667,NA,738058.1798,NA,NA,218168.551799999,3507.2110000001,665273.265899999,218168.573699999,777054.929399999,779982.1761,NA,NA,NA,NA,3507.28979999985,774060.7617,664763.4776,NA,777054.9434,774591.558099999,777054.882099999,"New experiment",19,"[0]","dist_present",56,52,"yes","yes",1680,0.687465792180768,-16.4029606481482,"more away","False","NR","NR","lp","Left",NA,NA,NA,0,3,"first",0,"NR","ex"
"59",897.377499999478,2533.6175000011,61958.8799000013,3,50,"y",7,"['6', 'space']","y","#000000","no",777859.034699999,2,"bias","psycho","psycho","psycho",0,"uniform",1,0,1,1,NA,1,0,NA,0,0,1,0,58,58,NA,NA,NA,NA,0,1,1,NA,58,1,58,73.2296414732588,"Thu Sep 16 11:23:27 2021","The main experiment item","yes","green","no","2","diamond",NA,"pinging_target_expectations 4.0.osexp","C:\Users\etp-cp-ping\Desktop\LocalPC-EXP",75,"no","mono","no",18,"no","white","no","yes",1050,NA,4,"psycho",2,1,2,"C:/Users/etp-cp-ping/Desktop/LocalPC-EXP/subject-14.csv","psycho",1,59,3,"Lentiform Loewenfeld","3.3.8","['hori', 'vert', 'vert', 'vert', 'hori', 'vert', 'hori', 'hori']","yes",104,"diamond","no",0,NA,2,"legacy",NA,1024,2,48000,-16,"experiment",14,"even","red","yes",4,"circle",492541.0918,737585.218300001,737585.2667,NA,738058.1798,NA,NA,218168.551799999,3507.2110000001,665273.265899999,218168.573699999,780012.4798,782974.088499999,NA,NA,NA,NA,3507.28979999985,774060.7617,664763.4776,NA,780012.494299999,774591.558099999,780012.4299,"New experiment",19,"[0]","dist_present",56,53,"yes","yes",1680,11.6602157921809,-9.6580856481482,"more away","False","R","NR","hp","Left",NA,"Left",NA,0,2,"first",4,"NR","ex"
"60",652.61210000061,3186.22960000171,62611.4920000019,4,51,"y",7,"['6', 'space']","y","#000000","no",777859.034699999,2,"bias","psycho","psycho","psycho",0,"uniform",1,0,1,1,NA,1,0,NA,0,0,1,0,59,59,NA,NA,NA,NA,0,1,1,NA,59,1,59,73.2296414732588,"Thu Sep 16 11:23:27 2021","The main experiment item","yes","red","no","None","circle",NA,"pinging_target_expectations 4.0.osexp","C:\Users\etp-cp-ping\Desktop\LocalPC-EXP",75,"no","mono","no",18,"no","white","no","yes",1050,NA,4,"psycho",3,1,3,"C:/Users/etp-cp-ping/Desktop/LocalPC-EXP/subject-14.csv","psycho",1,60,4,"Lentiform Loewenfeld","3.3.8","['hori', 'hori', 'hori', 'vert', 'vert', 'hori', 'vert', 'vert']","yes",104,"diamond","no",0,NA,2,"legacy",NA,1024,2,48000,-16,"experiment",14,"even","green","no",5,"diamond",492541.0918,737585.218300001,737585.2667,NA,738058.1798,NA,NA,218168.551799999,3507.2110000001,665273.265899999,218168.573699999,783004.188299999,785646.321,NA,NA,NA,NA,3507.28979999985,774060.7617,664763.4776,NA,783004.2022,774591.558099999,783004.138299999,"New experiment",19,"[0]","dist_absent",56,69,"yes","yes",1680,4.47009079218088,-10.9363356481482,"more away","False","NR","NR","hp",NA,"Right",NA,NA,-1,NA,"first",4,"R","in"
"61",847.823100000853,4034.05270000256,63459.3151000027,5,52,"y",7,"['6', 'space']","y","#000000","no",777859.034699999,2,"bias","psycho","psycho","psycho",0,"uniform",1,0,1,1,NA,1,0,NA,0,0,1,0,60,60,NA,NA,NA,NA,0,1,1,NA,60,1,60,73.2296414732588,"Thu Sep 16 11:23:27 2021","The main experiment item","yes","red","no","2","circle",NA,"pinging_target_expectations 4.0.osexp","C:\Users\etp-cp-ping\Desktop\LocalPC-EXP",75,"no","mono","no",18,"no","white","no","yes",1050,NA,4,"psycho",4,1,4,"C:/Users/etp-cp-ping/Desktop/LocalPC-EXP/subject-14.csv","psycho",1,61,5,"Lentiform Loewenfeld","3.3.8","['vert', 'vert', 'hori', 'hori', 'vert', 'hori', 'hori', 'vert']","yes",104,"diamond","no",0,NA,2,"legacy",NA,1024,2,48000,-16,"experiment",14,"even","green","no",7,"diamond",492541.0918,737585.218300001,737585.2667,NA,738058.1798,NA,NA,218168.551799999,3507.2110000001,665273.265899999,218168.573699999,785678.6572,788670.178599999,NA,NA,NA,NA,3507.28979999985,774060.7617,664763.4776,NA,785678.6713,774591.558099999,785678.607399999,"New experiment",19,"[0]","dist_present",56,83,"yes","yes",1680,11.9863407921809,-15.7064606481482,"more away","False","NR","NR","lp",NA,NA,NA,NA,-3,2,"first",5,"NR","in"
"62",734.455600000685,4768.50830000325,64193.7707000034,5,52,"y",7,"['6', 'space']","y","#000000","no",777859.034699999,2,"bias","psycho","psycho","psycho",0,"uniform",0,0,1,1,NA,1,0,NA,0,0,1,0,61,61,NA,NA,NA,NA,0,1,1,NA,61,1,61,73.2296414732588,"Thu Sep 16 11:23:27 2021","The main experiment item","yes","red","yes","4","diamond",NA,"pinging_target_expectations 4.0.osexp","C:\Users\etp-cp-ping\Desktop\LocalPC-EXP",75,"no","mono","no",18,"no","white","no","yes",1050,NA,4,"psycho",5,1,5,"C:/Users/etp-cp-ping/Desktop/LocalPC-EXP/subject-14.csv","psycho",1,62,6,"Lentiform Loewenfeld","3.3.8","['vert', 'hori', 'vert', 'hori', 'vert', 'vert', 'hori', 'hori']","yes",104,"circles","no",0,NA,2,"legacy",NA,1024,2,48000,-16,"experiment",14,"even","green","no",7,"circle",492541.0918,737585.218300001,737585.2667,NA,738058.1798,NA,NA,218168.551799999,3507.2110000001,665273.265899999,218168.573699999,788700.416,791294.100699999,NA,NA,NA,NA,3507.28979999985,774060.7617,664763.4776,NA,788700.4301,774591.558099999,788700.3659,"New experiment",19,"[0]","dist_present",56,85,"yes","yes",1680,1.11221579218082,-24.5468356481482,"more away","False","R","NR","lp",NA,"Right",NA,NA,-3,0,"first",7,"NR","in"
"63",1075.1151000004,5843.62340000365,65268.8858000038,6,53,"y",7,"['6', 'space']","y","#000000","no",791913.3361,2,"bias","psycho","psycho","psycho",0,"uniform",1,0,1,1,NA,1,0,NA,0,0,1,0,62,62,NA,NA,NA,NA,0,1,1,NA,62,1,62,73.2296414732588,"Thu Sep 16 11:23:27 2021","The main experiment item","yes","green","no","0","diamond",NA,"pinging_target_expectations 4.0.osexp","C:\Users\etp-cp-ping\Desktop\LocalPC-EXP",75,"no","mono","no",18,"no","white","no","yes",1050,NA,4,"psycho",6,1,6,"C:/Users/etp-cp-ping/Desktop/LocalPC-EXP/subject-14.csv","psycho",2,63,7,"Lentiform Loewenfeld","3.3.8","['vert', 'hori', 'vert', 'hori', 'hori', 'hori', 'vert', 'vert']","yes",104,"circles","no",0,NA,2,"legacy",NA,1024,2,48000,-16,"experiment",14,"even","red","no",1,"circle",492541.0918,737585.218300001,737585.2667,NA,738058.1798,NA,NA,218168.551799999,3507.2110000001,665273.265899999,218168.573699999,791324.434,794510.1636,NA,NA,NA,NA,3507.28979999985,774060.7617,664763.4776,NA,791324.4479,774591.558099999,791324.3852,"New experiment",19,"[0]","dist_present",56,21,"yes","no",1680,7.59984079218093,-10.3960856481482,"more away","False","NR","NR","lp",NA,"Left",NA,NA,3,4,"first",7,"R","in"
"64",682.112099999329,6525.73550000298,65950.9979000032,7,54,"y",7,"['6', 'space']","y","#000000","no",791913.3361,2,"bias","psycho","psycho","psycho",0,"uniform",1,0,1,1,NA,1,0,NA,0,0,1,0,63,63,NA,NA,NA,NA,0,1,1,NA,63,1,63,73.2296414732588,"Thu Sep 16 11:23:27 2021","The main experiment item","yes","green","no","0","circle",NA,"pinging_target_expectations 4.0.osexp","C:\Users\etp-cp-ping\Desktop\LocalPC-EXP",75,"no","mono","no",18,"no","white","no","yes",1050,NA,4,"psycho",7,1,7,"C:/Users/etp-cp-ping/Desktop/LocalPC-EXP/subject-14.csv","psycho",2,64,8,"Lentiform Loewenfeld","3.3.8","['vert', 'vert', 'hori', 'vert', 'hori', 'hori', 'hori', 'vert']","yes",104,"circles","no",0,NA,2,"legacy",NA,1024,2,48000,-16,"experiment",14,"even","red","yes",4,"diamond",492541.0918,737585.218300001,737585.2667,NA,738058.1798,NA,NA,218168.551799999,3507.2110000001,665273.265899999,218168.573699999,794542.879799999,796878.253299999,NA,NA,NA,NA,3507.28979999985,774060.7617,664763.4776,NA,794542.894,774591.558099999,794542.8235,"New experiment",19,"[0]","dist_present",56,51,"yes","yes",1680,-9.61728420781913,-28.9773356481483,"more away","False","NR","R","lp",NA,NA,NA,NA,0,4,"first",1,"NR","ex"
"65",1258.18850000005,7783.92400000303,67209.1864000032,8,55,"y",7,"['6', 'space']","y","#000000","no",791913.3361,2,"bias","psycho","psycho","psycho",0,"uniform",1,0,1,1,NA,1,0,NA,0,0,1,0,64,64,NA,NA,NA,NA,0,1,1,NA,64,1,64,73.2296414732588,"Thu Sep 16 11:23:27 2021","The main experiment item","yes","green","no","None","diamond",NA,"pinging_target_expectations 4.0.osexp","C:\Users\etp-cp-ping\Desktop\LocalPC-EXP",75,"no","mono","no",18,"no","white","no","yes",1050,NA,4,"psycho",8,1,8,"C:/Users/etp-cp-ping/Desktop/LocalPC-EXP/subject-14.csv","psycho",2,65,9,"Lentiform Loewenfeld","3.3.8","['hori', 'hori', 'hori', 'vert', 'hori', 'vert', 'vert', 'vert']","yes",104,"diamond","no",0,NA,2,"legacy",NA,1024,2,48000,-16,"experiment",14,"even","red","no",3,"circle",492541.0918,737585.218300001,737585.2667,NA,738058.1798,NA,NA,218168.551799999,3507.2110000001,665273.265899999,218168.573699999,796908.720399999,800030.144099999,NA,NA,NA,NA,3507.28979999985,774060.7617,664763.4776,NA,796908.7342,774591.558099999,796908.6725,"New experiment",19,"[0]","dist_absent",56,49,"yes","yes",1680,-10.336409207819,-32.4404606481482,"more away","False","NR","NR","hp",NA,"Left",NA,NA,1,NA,"first",4,"NR","in"
"66",812.720400001039,8596.64440000406,68021.9068000042,9,56,"y",7,"['6', 'space']","y","#000000","no",800801.528,2,"bias","psycho","psycho","psycho",0,"uniform",1,0,1,1,NA,1,0,NA,0,0,1,0,65,65,NA,NA,NA,NA,0,1,1,NA,65,1,65,73.2296414732588,"Thu Sep 16 11:23:27 2021","The main experiment item","yes","green","no","None","circle",NA,"pinging_target_expectations 4.0.osexp","C:\Users\etp-cp-ping\Desktop\LocalPC-EXP",75,"no","mono","no",18,"no","white","no","yes",1050,NA,4,"psycho",9,1,9,"C:/Users/etp-cp-ping/Desktop/LocalPC-EXP/subject-14.csv","psycho",3,66,10,"Lentiform Loewenfeld","3.3.8","['hori', 'hori', 'vert', 'hori', 'vert', 'vert', 'vert', 'hori']","no",204,"None","no",0,NA,2,"legacy",NA,1024,2,48000,-16,"experiment",14,"even","red","no",5,"diamond",492541.0918,737585.218300001,737585.2667,NA,738058.1798,NA,NA,218168.551799999,3507.2110000001,665273.265899999,218168.573699999,800060.3672,802606.110000001,NA,NA,NA,NA,3507.28979999985,774060.7617,664763.4776,NA,800060.380999999,774591.558099999,800060.318100001,"New experiment",19,"[0, 95.0538875742013, 133.60180946998094, 181.09277110930634, 231.6777662045203, 280.6132280294667, 334.2351705950415, 387.93360837813225, 446.2413231578325, 502.93162091618717, 562.46243771286, 618.1776569772949, 682.1934327233587, 746.2518366451701, 812.4769355860975, 877.2115118869076, 1026.8255477823943, 1083.62386167494, 1128.3788639765219, 1179.7447835781616, 1216.754665028314, 1242.8968165840663, 1259.0641365712868, 1283.6743229961148, 1390.6172190793554, 1413.4970548768429, 1420.4175061259225, 1446.4444732816783, 1467.1305971010884, 1484.389764856667]","dist_absent",56,69,"yes","no",1680,-15.0246592078192,9.95653935185175,"more toward","False","NR","R","lp",NA,"Right",NA,NA,-1,NA,"first",3,"NR","in"
"67",1363.59919999994,9960.243600004,69385.5060000042,10,57,"y",7,"['6', 'space']","y","#000000","no",800801.528,2,"bias","psycho","psycho","psycho",0,"uniform",1,0,1,1,NA,1,0,NA,0,0,1,0,66,66,NA,NA,NA,NA,0,1,1,NA,66,1,66,73.2296414732588,"Thu Sep 16 11:23:27 2021","The main experiment item","yes","green","no","5","diamond",NA,"pinging_target_expectations 4.0.osexp","C:\Users\etp-cp-ping\Desktop\LocalPC-EXP",75,"no","mono","no",18,"no","white","no","yes",1050,NA,4,"psycho",10,1,10,"C:/Users/etp-cp-ping/Desktop/LocalPC-EXP/subject-14.csv","psycho",3,67,11,"Lentiform Loewenfeld","3.3.8","['vert', 'hori', 'hori', 'vert', 'vert', 'hori', 'hori', 'vert']","no",204,"None","no",0,NA,2,"legacy",NA,1024,2,48000,-16,"experiment",14,"even","red","yes",4,"circle",492541.0918,737585.218300001,737585.2667,NA,738058.1798,NA,NA,218168.551799999,3507.2110000001,665273.265899999,218168.573699999,802636.192,805854.2184,NA,NA,NA,NA,3507.28979999985,774060.7617,664763.4776,NA,802636.205999999,774591.558099999,802636.1421,"New experiment",19,"[0]","dist_present",56,56,"yes","yes",1680,-10.4749092078191,-16.8029606481482,"more away","False","NR","NR","lp","Right",NA,NA,NA,0,-1,"first",5,"NR","ex"
"68",634.363199998974,10594.606800003,70019.8692000032,11,58,"y",7,"['6', 'space']","y","#000000","no",800801.528,2,"bias","psycho","psycho","psycho",0,"uniform",1,0,1,1,NA,1,0,NA,0,0,1,0,67,67,NA,NA,NA,NA,0,1,1,NA,67,1,67,73.2296414732588,"Thu Sep 16 11:23:27 2021","The main experiment item","yes","red","yes","4","circle",NA,"pinging_target_expectations 4.0.osexp","C:\Users\etp-cp-ping\Desktop\LocalPC-EXP",75,"no","mono","no",18,"no","white","no","yes",1050,NA,4,"psycho",11,1,11,"C:/Users/etp-cp-ping/Desktop/LocalPC-EXP/subject-14.csv","psycho",3,68,12,"Lentiform Loewenfeld","3.3.8","['vert', 'hori', 'hori', 'hori', 'hori', 'vert', 'vert', 'vert']","yes",104,"diamond","no",0,NA,2,"legacy",NA,1024,2,48000,-16,"experiment",14,"even","green","no",0,"diamond",492541.0918,737585.218300001,737585.2667,NA,738058.1798,NA,NA,218168.551799999,3507.2110000001,665273.265899999,218168.573699999,805884.582999999,808398.2447,NA,NA,NA,NA,3507.28979999985,774060.7617,664763.4776,NA,805884.5972,774591.558099999,805884.5308,"New experiment",19,"[0]","dist_present",56,15,"yes","yes",1680,7.70009079218075,-24.6702106481482,"more away","False","NR","NR","hp",NA,NA,NA,NA,4,0,"first",4,"NR","in"
"69",1191.22100000095,11785.8278000039,71211.0902000041,11,58,"y",7,"['6', 'space']","y","#000000","no",800801.528,2,"bias","psycho","psycho","psycho",0,"uniform",0,0,1,1,NA,1,0,NA,0,0,1,0,68,68,NA,NA,NA,NA,0,1,1,NA,68,1,68,73.2296414732588,"Thu Sep 16 11:23:27 2021","The main experiment item","yes","red","no","0","diamond",NA,"pinging_target_expectations 4.0.osexp","C:\Users\etp-cp-ping\Desktop\LocalPC-EXP",75,"no","mono","no",18,"no","white","no","yes",1050,NA,4,"psycho",12,1,12,"C:/Users/etp-cp-ping/Desktop/LocalPC-EXP/subject-14.csv","psycho",3,69,13,"Lentiform Loewenfeld","3.3.8","['hori', 'vert', 'vert', 'vert', 'vert', 'hori', 'hori', 'hori']","no",204,"None","no",0,NA,2,"legacy",NA,1024,2,48000,-16,"experiment",14,"even","green","yes",4,"circle",492541.0918,737585.218300001,737585.2667,NA,738058.1798,NA,NA,218168.551799999,3507.2110000001,665273.265899999,218168.573699999,808428.500099999,811502.1688,NA,NA,NA,NA,3507.28979999985,774060.7617,664763.4776,NA,808428.5144,774591.558099999,808428.4515,"New experiment",19,"[0]","dist_present",56,51,"yes","yes",1680,-6.6036592078191,-16.8562106481482,"more away","False","NR","NR","lp",NA,NA,NA,NA,0,4,"first",0,"NR","ex"
"70",915.821200000239,12701.6490000042,72126.9114000043,12,59,"y",7,"['6', 'space']","y","#000000","no",812527.7885,2,"bias","psycho","psycho","psycho",0,"uniform",1,0,1,1,NA,1,0,NA,0,0,1,0,69,69,NA,NA,NA,NA,0,1,1,NA,69,1,69,73.2296414732588,"Thu Sep 16 11:23:27 2021","The main experiment item","yes","red","no","1","circle",NA,"pinging_target_expectations 4.0.osexp","C:\Users\etp-cp-ping\Desktop\LocalPC-EXP",75,"no","mono","no",18,"no","white","no","yes",1050,NA,4,"psycho",13,1,13,"C:/Users/etp-cp-ping/Desktop/LocalPC-EXP/subject-14.csv","psycho",4,70,14,"Lentiform Loewenfeld","3.3.8","['hori', 'vert', 'vert', 'hori', 'vert', 'hori', 'hori', 'vert']","yes",104,"diamond","no",0,NA,2,"legacy",NA,1024,2,48000,-16,"experiment",14,"even","green","no",0,"diamond",492541.0918,737585.218300001,737585.2667,NA,738058.1798,NA,NA,218168.551799999,3507.2110000001,665273.265899999,218168.573699999,811532.487999999,814302.1199,NA,NA,NA,NA,3507.28979999985,774060.7617,664763.4776,NA,811532.501899999,774591.558099999,811532.4353,"New experiment",19,"[0, 98.78385495616173, 144.052000803693, 190.67061103920236, 236.871694062931, 287.10203450650545, 337.82106156039083, 390.66962600715647, 445.73208025467966, 499.6316932808254, 557.4809045260077, 614.4531740106489, 680.9159167841366, 743.3508867716907, 810.7627797086768, 879.6273173296624, 1044.7583601454214, 1103.814327368603, 1155.8898546420648, 1216.2867802050891, 1257.8450709801718, 1274.3855156160996, 1382.3224062530064, 1413.6340621773547, 1456.8600283208896]","dist_present",56,12,"yes","no",1680,NA,NA,"no hp","True","NR","NR","hp","Left",NA,NA,NA,4,3,"first",4,"NR","in"
"71",692.946699999156,13394.5957000033,72819.8581000035,13,60,"y",7,"['6', 'space']","y","#000000","no",812527.7885,2,"bias","psycho","psycho","psycho",0,"uniform",1,0,1,1,NA,1,0,NA,0,0,1,0,70,70,NA,NA,NA,NA,0,1,1,NA,70,1,70,73.2296414732588,"Thu Sep 16 11:23:27 2021","The main experiment item","yes","red","yes","4","circle",NA,"pinging_target_expectations 4.0.osexp","C:\Users\etp-cp-ping\Desktop\LocalPC-EXP",75,"no","mono","no",18,"no","white","no","yes",1050,NA,4,"psycho",14,1,14,"C:/Users/etp-cp-ping/Desktop/LocalPC-EXP/subject-14.csv","psycho",4,71,15,"Lentiform Loewenfeld","3.3.8","['hori', 'hori', 'vert', 'vert', 'hori', 'vert', 'hori', 'vert']","no",204,"None","no",0,NA,2,"legacy",NA,1024,2,48000,-16,"experiment",14,"even","green","no",0,"diamond",492541.0918,737585.218300001,737585.2667,NA,738058.1798,NA,NA,218168.551799999,3507.2110000001,665273.265899999,218168.573699999,814332.5324,816910.160699999,NA,NA,NA,NA,3507.28979999985,774060.7617,664763.4776,NA,814332.546600001,774591.558099999,814332.483099999,"New experiment",19,"[0]","dist_present",56,15,"yes","yes",1680,-19.8335342078191,-18.3423356481482,"more away","False","R","NR","lp",NA,NA,NA,NA,4,0,"first",0,"NR","in"
"72",832.480700000888,14227.0764000042,73652.3388000044,14,61,"y",7,"['6', 'space']","y","#000000","no",812527.7885,2,"bias","psycho","psycho","psycho",0,"uniform",1,0,1,1,NA,1,0,NA,0,0,1,0,71,71,NA,NA,NA,NA,0,1,1,NA,71,1,71,73.2296414732588,"Thu Sep 16 11:23:27 2021","The main experiment item","yes","red","no","2","circle",NA,"pinging_target_expectations 4.0.osexp","C:\Users\etp-cp-ping\Desktop\LocalPC-EXP",75,"no","mono","no",18,"no","white","no","yes",1050,NA,4,"psycho",15,1,15,"C:/Users/etp-cp-ping/Desktop/LocalPC-EXP/subject-14.csv","psycho",4,72,16,"Lentiform Loewenfeld","3.3.8","['vert', 'hori', 'vert', 'hori', 'hori', 'hori', 'vert', 'vert']","yes",104,"circles","no",0,NA,2,"legacy",NA,1024,2,48000,-16,"experiment",14,"even","green","yes",4,"diamond",492541.0918,737585.218300001,737585.2667,NA,738058.1798,NA,NA,218168.551799999,3507.2110000001,665273.265899999,218168.573699999,816940.5128,819694.199600001,NA,NA,NA,NA,3507.28979999985,774060.7617,664763.4776,NA,816940.527000001,774591.558099999,816940.4636,"New experiment",19,"[0]","dist_present",56,53,"yes","yes",1680,-16.6237842078192,-31.8308356481482,"more away","False","NR","NR","lp","Left",NA,"Left",NA,0,2,"first",0,"R","ex"
"73",974.901300000027,15201.9777000042,74627.2401000044,15,62,"y",7,"['6', 'space']","y","#000000","no",820407.956499999,2,"bias","psycho","psycho","psycho",0,"uniform",1,0,1,1,NA,1,0,NA,0,0,1,0,72,72,NA,NA,NA,NA,0,1,1,NA,72,1,72,73.2296414732588,"Thu Sep 16 11:23:27 2021","The main experiment item","yes","green","no","7","diamond",NA,"pinging_target_expectations 4.0.osexp","C:\Users\etp-cp-ping\Desktop\LocalPC-EXP",75,"no","mono","no",18,"no","white","no","yes",1050,NA,4,"psycho",16,1,16,"C:/Users/etp-cp-ping/Desktop/LocalPC-EXP/subject-14.csv","psycho",5,73,17,"Lentiform Loewenfeld","3.3.8","['hori', 'hori', 'vert', 'vert', 'vert', 'hori', 'vert', 'hori']","no",204,"None","no",0,NA,2,"legacy",NA,1024,2,48000,-16,"experiment",14,"even","red","no",3,"circle",492541.0918,737585.218300001,737585.2667,NA,738058.1798,NA,NA,218168.551799999,3507.2110000001,665273.265899999,218168.573699999,819724.570799999,822430.1614,NA,NA,NA,NA,3507.28979999985,774060.7617,664763.4776,NA,819724.585099999,774591.558099999,819724.5191,"New experiment",19,"[0, 83.32613932978182, 110.26574176122266, 142.3012693454453, 176.97278545582475, 213.57832335590678, 255.45222201886432, 296.34606185003474, 340.0680157798524, 387.6204707516153, 436.60741645500804, 487.52825348315673, 537.0070810407357, 586.3634337032621, 642.089241684606, 698.605279685317, 755.8066508355598, 814.6490611211955, 952.7544462663891, 1007.5955596093035, 1052.865850306998, 1106.4989801608162, 1150.4627245943934, 1187.4301798306528, 1200.4296581932738, 1224.7908493866255, 1280.4917208662582, 1355.9750990372152, 1391.0738657598308, 1421.5025060845621, 1462.367438407513]","dist_present",56,48,"yes","no",1680,-9.4149092078191,-24.1067106481481,"more away","False","NR","NR","hp",NA,NA,NA,NA,1,-3,"first",4,"NR","in"
"74",759.142299999367,15961.1200000036,75386.3824000038,16,63,"y",7,"['6', 'space']","y","#000000","no",820407.956499999,2,"bias","psycho","psycho","psycho",0,"uniform",1,0,1,1,NA,1,0,NA,0,0,1,0,73,73,NA,NA,NA,NA,0,1,1,NA,73,1,73,73.2296414732588,"Thu Sep 16 11:23:27 2021","The main experiment item","yes","green","no","7","circle",NA,"pinging_target_expectations 4.0.osexp","C:\Users\etp-cp-ping\Desktop\LocalPC-EXP",75,"no","mono","no",18,"no","white","no","yes",1050,NA,4,"psycho",17,1,17,"C:/Users/etp-cp-ping/Desktop/LocalPC-EXP/subject-14.csv","psycho",5,74,18,"Lentiform Loewenfeld","3.3.8","['hori', 'vert', 'hori', 'hori', 'hori', 'vert', 'vert', 'vert']","yes",104,"diamond","no",0,NA,2,"legacy",NA,1024,2,48000,-16,"experiment",14,"even","red","no",3,"diamond",492541.0918,737585.218300001,737585.2667,NA,738058.1798,NA,NA,218168.551799999,3507.2110000001,665273.265899999,218168.573699999,822460.589099999,825214.1328,NA,NA,NA,NA,3507.28979999985,774060.7617,664763.4776,NA,822460.6031,774591.558099999,822460.539600001,"New experiment",19,"[0]","dist_present",56,48,"yes","yes",1680,-8.04928420781911,-10.7872106481482,"more away","False","R","R","lp",NA,NA,NA,NA,1,-3,"first",3,"NR","in"
"75",1051.66979999922,17012.7898000028,76438.052200003,17,64,"y",7,"['6', 'space']","y","#000000","no",820407.956499999,2,"bias","psycho","psycho","psycho",0,"uniform",1,0,1,1,NA,1,0,NA,0,0,1,0,74,74,NA,NA,NA,NA,0,1,1,NA,74,1,74,73.2296414732588,"Thu Sep 16 11:23:27 2021","The main experiment item","yes","green","no","0","diamond",NA,"pinging_target_expectations 4.0.osexp","C:\Users\etp-cp-ping\Desktop\LocalPC-EXP",75,"no","mono","no",18,"no","white","no","yes",1050,NA,4,"psycho",18,1,18,"C:/Users/etp-cp-ping/Desktop/LocalPC-EXP/subject-14.csv","psycho",5,75,19,"Lentiform Loewenfeld","3.3.8","['hori', 'hori', 'hori', 'vert', 'hori', 'vert', 'vert', 'vert']","no",204,"None","no",0,NA,2,"legacy",NA,1024,2,48000,-16,"experiment",14,"even","red","yes",4,"circle",492541.0918,737585.218300001,737585.2667,NA,738058.1798,NA,NA,218168.551799999,3507.2110000001,665273.265899999,218168.573699999,825244.4682,828350.1282,NA,NA,NA,NA,3507.28979999985,774060.7617,664763.4776,NA,825244.4823,774591.558099999,825244.418799999,"New experiment",19,"[0]","dist_present",56,51,"yes","yes",1680,-10.5704092078193,-13.1870856481482,"more away","False","NR","NR","lp",NA,NA,NA,NA,0,4,"first",3,"R","ex"
"76",974.471399998991,17987.2612000018,77412.523600002,18,65,"y",7,"['6', 'space']","y","#000000","no",829041.1097,2,"bias","psycho","psycho","psycho",0,"uniform",1,0,1,1,NA,1,0,NA,0,0,1,0,75,75,NA,NA,NA,NA,0,1,1,NA,75,1,75,73.2296414732588,"Thu Sep 16 11:23:27 2021","The main experiment item","yes","green","no","None","diamond",NA,"pinging_target_expectations 4.0.osexp","C:\Users\etp-cp-ping\Desktop\LocalPC-EXP",75,"no","mono","no",18,"no","white","no","yes",1050,NA,4,"psycho",19,1,19,"C:/Users/etp-cp-ping/Desktop/LocalPC-EXP/subject-14.csv","psycho",6,76,20,"Lentiform Loewenfeld","3.3.8","['vert', 'vert', 'hori', 'vert', 'hori', 'hori', 'hori', 'vert']","no",204,"None","no",0,NA,2,"legacy",NA,1024,2,48000,-16,"experiment",14,"even","red","no",5,"circle",492541.0918,737585.218300001,737585.2667,NA,738058.1798,NA,NA,218168.551799999,3507.2110000001,665273.265899999,218168.573699999,828380.689600001,831262.1755,NA,NA,NA,NA,3507.28979999985,774060.7617,664763.4776,NA,828380.703499999,774591.558099999,828380.6406,"New experiment",19,"[0, 115.20596730354008, 177.84040235823437, 247.70120728082665, 320.2821224353006, 398.9803801200058, 485.4192050927241, 580.2648004974039, 683.0137617020018, 791.290149333436, 978.6690870330303, 1081.4584022810393, 1189.334678441587, 1269.846160071772, 1351.1360867206781, 1477.3711441272983]","dist_absent",56,69,"yes","no",1680,-2.93328420781904,7.23128935185182,"more toward","False","NR","NR","hp",NA,"Right",NA,NA,-1,NA,"first",4,"NR","in"
"77",810.975599999423,18798.2368000012,78223.4992000014,19,66,"y",7,"['6', 'space']","y","#000000","no",829041.1097,2,"bias","psycho","psycho","psycho",0,"uniform",1,0,1,1,NA,1,0,NA,0,0,1,0,76,76,NA,NA,NA,NA,0,1,1,NA,76,1,76,73.2296414732588,"Thu Sep 16 11:23:27 2021","The main experiment item","yes","red","no","None","diamond",NA,"pinging_target_expectations 4.0.osexp","C:\Users\etp-cp-ping\Desktop\LocalPC-EXP",75,"no","mono","no",18,"no","white","no","yes",1050,NA,4,"psycho",20,1,20,"C:/Users/etp-cp-ping/Desktop/LocalPC-EXP/subject-14.csv","psycho",6,77,21,"Lentiform Loewenfeld","3.3.8","['vert', 'vert', 'hori', 'hori', 'vert', 'vert', 'hori', 'hori']","yes",104,"circles","no",0,NA,2,"legacy",NA,1024,2,48000,-16,"experiment",14,"even","green","yes",4,"circle",492541.0918,737585.218300001,737585.2667,NA,738058.1798,NA,NA,218168.551799999,3507.2110000001,665273.265899999,218168.573699999,831292.726199999,833822.1539,NA,NA,NA,NA,3507.28979999985,774060.7617,664763.4776,NA,831292.740299999,774591.558099999,831292.6771,"New experiment",19,"[0]","dist_absent",56,59,"yes","yes",1680,10.7357157921809,28.3279143518518,"more toward","False","NR","R","lp",NA,NA,NA,NA,0,NA,"first",5,"NR","ex"
"78",938.364400000894,19736.6012000021,79161.8636000023,20,67,"y",7,"['6', 'space']","y","#000000","no",829041.1097,2,"bias","psycho","psycho","psycho",0,"uniform",1,0,1,1,NA,1,0,NA,0,0,1,0,77,77,NA,NA,NA,NA,0,1,1,NA,77,1,77,73.2296414732588,"Thu Sep 16 11:23:27 2021","The main experiment item","yes","green","no","2","circle",NA,"pinging_target_expectations 4.0.osexp","C:\Users\etp-cp-ping\Desktop\LocalPC-EXP",75,"no","mono","no",18,"no","white","no","yes",1050,NA,4,"psycho",21,1,21,"C:/Users/etp-cp-ping/Desktop/LocalPC-EXP/subject-14.csv","psycho",6,78,22,"Lentiform Loewenfeld","3.3.8","['hori', 'hori', 'vert', 'vert', 'vert', 'hori', 'hori', 'vert']","no",204,"None","no",0,NA,2,"legacy",NA,1024,2,48000,-16,"experiment",14,"even","red","no",6,"diamond",492541.0918,737585.218300001,737585.2667,NA,738058.1798,NA,NA,218168.551799999,3507.2110000001,665273.265899999,218168.573699999,833854.266099999,836542.144699999,NA,NA,NA,NA,3507.28979999985,774060.7617,664763.4776,NA,833854.2803,774591.558099999,833854.2167,"New experiment",19,"[0]","dist_present",56,73,"yes","yes",1680,-6.56515920781906,-22.8314606481482,"more away","False","NR","NR","hp",NA,NA,NA,NA,-2,2,"first",4,"NR","in"
"79",821.70829999994,20558.3095000021,79983.5719000023,21,68,"y",7,"['6', 'space']","y","#000000","no",829041.1097,2,"bias","psycho","psycho","psycho",0,"uniform",1,0,1,1,NA,1,0,NA,0,0,1,0,78,78,NA,NA,NA,NA,0,1,1,NA,78,1,78,73.2296414732588,"Thu Sep 16 11:23:27 2021","The main experiment item","yes","red","no","None","diamond",NA,"pinging_target_expectations 4.0.osexp","C:\Users\etp-cp-ping\Desktop\LocalPC-EXP",75,"no","mono","no",18,"no","white","no","yes",1050,NA,4,"psycho",22,1,22,"C:/Users/etp-cp-ping/Desktop/LocalPC-EXP/subject-14.csv","psycho",6,79,23,"Lentiform Loewenfeld","3.3.8","['hori', 'hori', 'vert', 'vert', 'hori', 'vert', 'hori', 'vert']","no",204,"None","no",0,NA,2,"legacy",NA,1024,2,48000,-16,"experiment",14,"even","green","yes",4,"circle",492541.0918,737585.218300001,737585.2667,NA,738058.1798,NA,NA,218168.551799999,3507.2110000001,665273.265899999,218168.573699999,836572.5619,839310.125800001,NA,NA,NA,NA,3507.28979999985,774060.7617,664763.4776,NA,836572.5759,774591.558099999,836572.509899999,"New experiment",19,"[0]","dist_absent",56,59,"yes","yes",1680,5.21871579218077,3.39466435185182,"more away","False","NR","NR","lp",NA,NA,NA,NA,0,NA,"first",6,"NR","ex"
"80",683.106799999136,21241.4163000012,80666.6787000014,22,69,"y",7,"['6', 'space']","y","#000000","no",829041.1097,2,"bias","psycho","psycho","psycho",0,"uniform",1,0,1,1,NA,1,0,NA,0,0,1,0,79,79,NA,NA,NA,NA,0,1,1,NA,79,1,79,73.2296414732588,"Thu Sep 16 11:23:27 2021","The main experiment item","yes","green","no","7","circle",NA,"pinging_target_expectations 4.0.osexp","C:\Users\etp-cp-ping\Desktop\LocalPC-EXP",75,"no","mono","no",18,"no","white","no","yes",1050,NA,4,"psycho",23,1,23,"C:/Users/etp-cp-ping/Desktop/LocalPC-EXP/subject-14.csv","psycho",6,80,24,"Lentiform Loewenfeld","3.3.8","['hori', 'hori', 'hori', 'vert', 'vert', 'vert', 'hori', 'vert']","yes",104,"diamond","no",0,NA,2,"legacy",NA,1024,2,48000,-16,"experiment",14,"even","red","no",3,"diamond",492541.0918,737585.218300001,737585.2667,NA,738058.1798,NA,NA,218168.551799999,3507.2110000001,665273.265899999,218168.573699999,839340.566999999,842030.2517,NA,NA,NA,NA,3507.28979999985,774060.7617,664763.4776,NA,839340.581099999,774591.558099999,839340.517799999,"New experiment",19,"[0]","dist_present",56,48,"yes","yes",1680,9.98346579218083,4.26928935185176,"more toward","False","NR","NR","hp",NA,NA,NA,NA,1,-3,"first",4,"NR","in"
