"","RT","RT_bl","RT_tot","acc_bl","acc_tot","answer_debrief_1","answer_debrief_2","answer_debrief_3","answer_debrief_4","background","bidi","blink_onset","block_cnt","block_type","canvas_backend","clock_backend","color_backend","compensation","coordinates","correct","count_block_loop","count_block_seq","count_block_settings","count_check_session","count_drift_correct","count_end_loop","count_end_seq","count_exp_settings","count_experiment","count_feedback","count_instructions","count_log_variables","count_logger","count_new_inline_script","count_new_pygaze_drift_correct","count_new_pygaze_start_recording","count_new_pygaze_stop_recording","count_pygaze","count_start_recording","count_stop_recording","count_test_location","count_trial","count_trial_loop","count_trial_seq","d_eye","datetime","description","disable_garbage_collection","dist_color","dist_high","dist_loc","dist_shape","empty_column","experiment_file","experiment_path","eye_threshold_length","font_bold","font_family","font_italic","font_size","font_underline","foreground","form_clicks","fullscreen","height","high_loc","high_prob_loc","keyboard_backend","live_row","live_row_block_loop","live_row_trial_loop","logfile","mouse_backend","nr_blinks","nr_trials","nr_trials_bl","opensesame_codename","opensesame_version","orient_list_trial","ping","ping_trigger","ping_type","practice","repeat_cycle","response","round_decimals","sampler_backend","session_nr","sound_buf_size","sound_channels","sound_freq","sound_sample_size","start","subject_nr","subject_parity","target_color","target_high","target_loc","target_shape","time_block_loop","time_block_seq","time_block_settings","time_check_session","time_drift_correct","time_end_loop","time_end_seq","time_exp_settings","time_experiment","time_feedback","time_instructions","time_log_variables","time_logger","time_new_inline_script","time_new_pygaze_drift_correct","time_new_pygaze_start_recording","time_new_pygaze_stop_recording","time_pygaze","time_start_recording","time_stop_recording","time_test_location","time_trial","time_trial_loop","time_trial_seq","title","total_blocks","tracker_dev","trial_type","trials_in_block","trigger","uniform_coordinates","update_blinks","width","x","y","toward","containsNaN","rept","repd","prevtar","pd","nt","pd_c","nt_c","tar_dist","dist_dist","prevHP","eegTar","repteeg","tarcounter"
"1",2000.49669999952,2000.49669999952,2000.49669999952,0,0,"n",6,"['7', '7', '4', 'space']","y","#000000","no",1367.81849999988,1,"neutral","psycho","psycho","psycho",0,"uniform",0,0,0,0,NA,0,0,NA,0,0,0,0,0,0,NA,NA,NA,NA,0,0,0,NA,0,0,0,73.2296414732588,"Fri Oct 29 11:32:17 2021","The main experiment item","yes","green","no","None","circle",NA,"pinging_target_expectations 4.0.osexp","C:\Users\etp-cp-ping\Desktop\LocalPC-EXP",75,"no","mono","no",18,"no","white","no","yes",1050,NA,100,"psycho",0,0,0,"C:/Users/etp-cp-ping/Desktop/LocalPC-EXP/subject-15.csv","psycho",0,1,1,"Lentiform Loewenfeld","3.3.8","['vert', 'vert', 'hori', 'hori', 'hori', 'vert', 'vert', 'hori']","no",209,"None","yes",0,NA,2,"legacy",NA,1024,2,48000,-16,"experiment",15,"odd","red","no",6,"diamond",240457.946699999,240470.3811,240470.421999999,NA,242601.973999999,NA,NA,67933.3735,1372.69649999962,NA,67933.3970999996,243853.365399999,248009.6654,NA,NA,NA,NA,1372.77419999918,243478.038499999,NA,NA,243853.3822,243849.0388,243853.2846,"New experiment",19,"[0]","dist_absent",56,79,"yes","yes",1680,NA,NA,NA,NA,"NR","NR","lp",NA,"Right",NA,"Right",NA,NA,"practice",999,"NR","in"
"2",724.497500000318,2724.99419999984,2724.99419999984,0,0,"n",6,"['7', '7', '4', 'space']","y","#000000","no",249282.8573,1,"neutral","psycho","psycho","psycho",0,"uniform",0,0,0,0,NA,0,0,NA,0,0,0,0,1,1,NA,NA,NA,NA,0,0,0,NA,1,0,1,73.2296414732588,"Fri Oct 29 11:32:17 2021","The main experiment item","yes","green","no","None","diamond",NA,"pinging_target_expectations 4.0.osexp","C:\Users\etp-cp-ping\Desktop\LocalPC-EXP",75,"no","mono","no",18,"no","white","no","yes",1050,NA,100,"psycho",1,0,1,"C:/Users/etp-cp-ping/Desktop/LocalPC-EXP/subject-15.csv","psycho",2,2,2,"Lentiform Loewenfeld","3.3.8","['hori', 'hori', 'hori', 'vert', 'hori', 'vert', 'vert', 'vert']","no",209,"None","yes",0,NA,2,"legacy",NA,1024,2,48000,-16,"experiment",15,"odd","red","no",3,"circle",240457.946699999,240470.3811,240470.421999999,NA,242601.973999999,NA,NA,67933.3735,1372.69649999962,NA,67933.3970999996,248049.9382,250667.189399999,NA,NA,NA,NA,1372.77419999918,243478.038499999,NA,NA,248049.952699999,243849.0388,248049.8915,"New experiment",19,"[0]","dist_absent",56,49,"yes","yes",1680,NA,NA,NA,NA,"NR","R","lp",NA,"Left",NA,NA,NA,NA,"practice",6,"NR","in"
"3",1200.20770000064,3925.20190000048,3925.20190000048,1,1,"n",6,"['7', '7', '4', 'space']","y","#000000","no",251709.4029,1,"neutral","psycho","psycho","psycho",0,"uniform",1,0,0,0,NA,0,0,NA,0,0,0,0,2,2,NA,NA,NA,NA,0,0,0,NA,2,0,2,73.2296414732588,"Fri Oct 29 11:32:17 2021","The main experiment item","yes","red","no","0","diamond",NA,"pinging_target_expectations 4.0.osexp","C:\Users\etp-cp-ping\Desktop\LocalPC-EXP",75,"no","mono","no",18,"no","white","no","yes",1050,NA,100,"psycho",2,0,2,"C:/Users/etp-cp-ping/Desktop/LocalPC-EXP/subject-15.csv","psycho",4,3,3,"Lentiform Loewenfeld","3.3.8","['vert', 'hori', 'hori', 'hori', 'hori', 'vert', 'vert', 'vert']","no",209,"None","yes",0,NA,2,"legacy",NA,1024,2,48000,-16,"experiment",15,"odd","green","no",1,"circle",240457.946699999,240470.3811,240470.421999999,NA,242601.973999999,NA,NA,67933.3735,1372.69649999962,NA,67933.3970999996,250699.3305,253675.128999999,NA,NA,NA,NA,1372.77419999918,243478.038499999,NA,NA,250699.345,243849.0388,250699.2814,"New experiment",19,"[0]","dist_present",56,21,"yes","yes",1680,NA,NA,NA,NA,"NR","NR","lp",NA,"Left",NA,NA,NA,NA,"practice",3,"NR","in"
"4",1005.44759999958,4930.64950000006,4930.64950000006,2,2,"n",6,"['7', '7', '4', 'space']","y","#000000","no",254076.941599999,1,"neutral","psycho","psycho","psycho",0,"uniform",1,0,0,0,NA,0,0,NA,0,0,0,0,3,3,NA,NA,NA,NA,0,0,0,NA,3,0,3,73.2296414732588,"Fri Oct 29 11:32:17 2021","The main experiment item","yes","red","no","3","circle",NA,"pinging_target_expectations 4.0.osexp","C:\Users\etp-cp-ping\Desktop\LocalPC-EXP",75,"no","mono","no",18,"no","white","no","yes",1050,NA,100,"psycho",3,0,3,"C:/Users/etp-cp-ping/Desktop/LocalPC-EXP/subject-15.csv","psycho",5,4,4,"Lentiform Loewenfeld","3.3.8","['vert', 'hori', 'hori', 'vert', 'vert', 'vert', 'hori', 'hori']","no",209,"None","yes",0,NA,2,"legacy",NA,1024,2,48000,-16,"experiment",15,"odd","green","no",2,"diamond",240457.946699999,240470.3811,240470.421999999,NA,242601.973999999,NA,NA,67933.3735,1372.69649999962,NA,67933.3970999996,253706.1125,256491.157699999,NA,NA,NA,NA,1372.77419999918,243478.038499999,NA,NA,253706.1269,243849.0388,253706.0636,"New experiment",19,"[0]","dist_present",56,34,"yes","yes",1680,NA,NA,NA,NA,"NR","NR","lp",NA,NA,NA,NA,NA,NA,"practice",1,"NR","in"
"5",2000.60769999982,6931.25719999988,6931.25719999988,2,2,"n",6,"['7', '7', '4', 'space']","y","#000000","no",257111.0252,1,"neutral","psycho","psycho","psycho",0,"uniform",0,0,0,0,NA,0,0,NA,0,0,0,0,4,4,NA,NA,NA,NA,0,0,0,NA,4,0,4,73.2296414732588,"Fri Oct 29 11:32:17 2021","The main experiment item","yes","green","no","2","diamond",NA,"pinging_target_expectations 4.0.osexp","C:\Users\etp-cp-ping\Desktop\LocalPC-EXP",75,"no","mono","no",18,"no","white","no","yes",1050,NA,100,"psycho",4,0,4,"C:/Users/etp-cp-ping/Desktop/LocalPC-EXP/subject-15.csv","psycho",6,5,5,"Lentiform Loewenfeld","3.3.8","['hori', 'hori', 'hori', 'vert', 'vert', 'vert', 'vert', 'hori']","no",209,"None","yes",0,NA,2,"legacy",NA,1024,2,48000,-16,"experiment",15,"odd","red","no",3,"circle",240457.946699999,240470.3811,240470.421999999,NA,242601.973999999,NA,NA,67933.3735,1372.69649999962,NA,67933.3970999996,256523.4707,260201.3214,NA,NA,NA,NA,1372.77419999918,243478.038499999,NA,NA,256523.4855,243849.0388,256523.4198,"New experiment",19,"[0]","dist_present",56,43,"yes","yes",1680,NA,NA,NA,NA,"NR","NR","lp",NA,NA,NA,NA,NA,NA,"practice",2,"NR","in"
"6",2001.05490000074,8932.31210000062,8932.31210000062,2,2,"n",6,"['7', '7', '4', 'space']","y","#000000","no",260637.0989,1,"neutral","psycho","psycho","psycho",0,"uniform",0,0,0,0,NA,0,0,NA,0,0,0,0,5,5,NA,NA,NA,NA,0,0,0,NA,5,0,5,73.2296414732588,"Fri Oct 29 11:32:17 2021","The main experiment item","yes","red","no","None","diamond",NA,"pinging_target_expectations 4.0.osexp","C:\Users\etp-cp-ping\Desktop\LocalPC-EXP",75,"no","mono","no",18,"no","white","no","yes",1050,NA,100,"psycho",5,0,5,"C:/Users/etp-cp-ping/Desktop/LocalPC-EXP/subject-15.csv","psycho",7,6,6,"Lentiform Loewenfeld","3.3.8","['vert', 'vert', 'hori', 'vert', 'vert', 'hori', 'hori', 'hori']","no",209,"None","yes",0,NA,2,"legacy",NA,1024,2,48000,-16,"experiment",15,"odd","green","no",0,"circle",240457.946699999,240470.3811,240470.421999999,NA,242601.973999999,NA,NA,67933.3735,1372.69649999962,NA,67933.3970999996,260231.9264,264152.8951,NA,NA,NA,NA,1372.77419999918,243478.038499999,NA,NA,260231.940899999,243849.0388,260231.8755,"New experiment",19,"[0]","dist_absent",56,19,"yes","yes",1680,NA,NA,NA,NA,"NR","NR","lp",NA,NA,NA,NA,NA,NA,"practice",3,"NR","in"
"7",1184.31789999979,10116.6300000004,10116.6300000004,2,2,"n",6,"['7', '7', '4', 'space']","y","#000000","no",264851.1537,1,"neutral","psycho","psycho","psycho",0,"uniform",0,0,0,0,NA,0,0,NA,0,0,0,0,6,6,NA,NA,NA,NA,0,0,0,NA,6,0,6,73.2296414732588,"Fri Oct 29 11:32:17 2021","The main experiment item","yes","red","no","4","circle",NA,"pinging_target_expectations 4.0.osexp","C:\Users\etp-cp-ping\Desktop\LocalPC-EXP",75,"no","mono","no",18,"no","white","no","yes",1050,NA,100,"psycho",6,0,6,"C:/Users/etp-cp-ping/Desktop/LocalPC-EXP/subject-15.csv","psycho",8,7,7,"Lentiform Loewenfeld","3.3.8","['hori', 'vert', 'vert', 'vert', 'hori', 'hori', 'hori', 'vert']","yes",109,"diamond","yes",0,NA,2,"legacy",NA,1024,2,48000,-16,"experiment",15,"odd","green","no",3,"diamond",240457.946699999,240470.3811,240470.421999999,NA,242601.973999999,NA,NA,67933.3735,1372.69649999962,NA,67933.3970999996,264183.8186,267291.0876,NA,NA,NA,NA,1372.77419999918,243478.038499999,NA,NA,264183.8332,243849.0388,264183.768999999,"New experiment",19,"[0]","dist_present",56,45,"yes","yes",1680,NA,NA,NA,NA,"NR","NR","lp",NA,"Left",NA,NA,NA,NA,"practice",0,"NR","in"
"8",2000.40739999985,12117.0374000003,12117.0374000003,2,2,"n",6,"['7', '7', '4', 'space']","y","#000000","no",268237.222999999,1,"neutral","psycho","psycho","psycho",0,"uniform",0,0,0,0,NA,0,0,NA,0,0,0,0,7,7,NA,NA,NA,NA,0,0,0,NA,7,0,7,73.2296414732588,"Fri Oct 29 11:32:17 2021","The main experiment item","yes","red","no","0","circle",NA,"pinging_target_expectations 4.0.osexp","C:\Users\etp-cp-ping\Desktop\LocalPC-EXP",75,"no","mono","no",18,"no","white","no","yes",1050,NA,100,"psycho",7,0,7,"C:/Users/etp-cp-ping/Desktop/LocalPC-EXP/subject-15.csv","psycho",10,8,8,"Lentiform Loewenfeld","3.3.8","['vert', 'hori', 'hori', 'hori', 'hori', 'vert', 'vert', 'vert']","no",209,"None","yes",0,NA,2,"legacy",NA,1024,2,48000,-16,"experiment",15,"odd","green","no",5,"diamond",240457.946699999,240470.3811,240470.421999999,NA,242601.973999999,NA,NA,67933.3735,1372.69649999962,NA,67933.3970999996,267322.684,271280.117699999,NA,NA,NA,NA,1372.77419999918,243478.038499999,NA,NA,267322.698899999,243849.0388,267322.6349,"New experiment",19,"[0]","dist_present",56,61,"yes","yes",1680,NA,NA,NA,NA,"NR","NR","lp",NA,"Right",NA,NA,NA,NA,"practice",3,"NR","in"
"9",1323.95869999978,13440.9961,13440.9961,3,3,"n",6,"['7', '7', '4', 'space']","y","#000000","no",271830.3185,1,"neutral","psycho","psycho","psycho",0,"uniform",1,0,0,0,NA,0,0,NA,0,0,0,0,8,8,NA,NA,NA,NA,0,0,0,NA,8,0,8,73.2296414732588,"Fri Oct 29 11:32:17 2021","The main experiment item","yes","green","no","None","circle",NA,"pinging_target_expectations 4.0.osexp","C:\Users\etp-cp-ping\Desktop\LocalPC-EXP",75,"no","mono","no",18,"no","white","no","yes",1050,NA,100,"psycho",8,0,8,"C:/Users/etp-cp-ping/Desktop/LocalPC-EXP/subject-15.csv","psycho",11,9,9,"Lentiform Loewenfeld","3.3.8","['vert', 'hori', 'vert', 'hori', 'vert', 'hori', 'vert', 'hori']","yes",109,"diamond","yes",0,NA,2,"legacy",NA,1024,2,48000,-16,"experiment",15,"odd","red","no",3,"diamond",240457.946699999,240470.3811,240470.421999999,NA,242601.973999999,NA,NA,67933.3735,1372.69649999962,NA,67933.3970999996,271310.819599999,274715.0972,NA,NA,NA,NA,1372.77419999918,243478.038499999,NA,NA,271310.834399999,243849.0388,271310.7653,"New experiment",19,"[0]","dist_absent",56,49,"yes","yes",1680,NA,NA,NA,NA,"NR","NR","lp",NA,"Left",NA,NA,NA,NA,"practice",5,"NR","in"
"10",2000.64999999991,15441.6461,15441.6461,3,3,"n",6,"['7', '7', '4', 'space']","y","#000000","no",275439.892799999,1,"neutral","psycho","psycho","psycho",0,"uniform",0,0,0,0,NA,0,0,NA,0,0,0,0,9,9,NA,NA,NA,NA,0,0,0,NA,9,0,9,73.2296414732588,"Fri Oct 29 11:32:17 2021","The main experiment item","yes","red","no","0","diamond",NA,"pinging_target_expectations 4.0.osexp","C:\Users\etp-cp-ping\Desktop\LocalPC-EXP",75,"no","mono","no",18,"no","white","no","yes",1050,NA,100,"psycho",9,0,9,"C:/Users/etp-cp-ping/Desktop/LocalPC-EXP/subject-15.csv","psycho",13,10,10,"Lentiform Loewenfeld","3.3.8","['hori', 'vert', 'hori', 'vert', 'vert', 'hori', 'vert', 'hori']","yes",109,"circles","yes",0,NA,2,"legacy",NA,1024,2,48000,-16,"experiment",15,"odd","green","no",2,"circle",240457.946699999,240470.3811,240470.421999999,NA,242601.973999999,NA,NA,67933.3735,1372.69649999962,NA,67933.3970999996,274746.676799999,278400.817299999,NA,NA,NA,NA,1372.77419999918,243478.038499999,NA,NA,274746.6914,243849.0388,274746.625299999,"New experiment",19,"[0]","dist_present",56,31,"yes","yes",1680,NA,NA,NA,NA,"NR","NR","lp",NA,"Left",NA,"Left",NA,NA,"practice",3,"NR","in"
"11",2000.29749999975,17441.9435999997,17441.9435999997,3,3,"n",6,"['7', '7', '4', 'space']","y","#000000","no",279253.4535,1,"neutral","psycho","psycho","psycho",0,"uniform",0,0,0,0,NA,0,0,NA,0,0,0,0,10,10,NA,NA,NA,NA,0,0,0,NA,10,0,10,73.2296414732588,"Fri Oct 29 11:32:17 2021","The main experiment item","yes","red","no","None","circle",NA,"pinging_target_expectations 4.0.osexp","C:\Users\etp-cp-ping\Desktop\LocalPC-EXP",75,"no","mono","no",18,"no","white","no","yes",1050,NA,100,"psycho",10,0,10,"C:/Users/etp-cp-ping/Desktop/LocalPC-EXP/subject-15.csv","psycho",15,11,11,"Lentiform Loewenfeld","3.3.8","['hori', 'hori', 'vert', 'vert', 'hori', 'hori', 'vert', 'vert']","yes",109,"diamond","yes",0,NA,2,"legacy",NA,1024,2,48000,-16,"experiment",15,"odd","green","no",0,"diamond",240457.946699999,240470.3811,240470.421999999,NA,242601.973999999,NA,NA,67933.3735,1372.69649999962,NA,67933.3970999996,278431.620699999,282339.6868,NA,NA,NA,NA,1372.77419999918,243478.038499999,NA,NA,278431.635499999,243849.0388,278431.5707,"New experiment",19,"[0]","dist_absent",56,19,"yes","yes",1680,NA,NA,NA,NA,"NR","NR","lp",NA,NA,NA,NA,NA,NA,"practice",2,"NR","in"
"12",2000.25349999941,19442.1970999991,19442.1970999991,3,3,"n",6,"['7', '7', '4', 'space']","y","#000000","no",283115.5369,1,"neutral","psycho","psycho","psycho",0,"uniform",0,0,0,0,NA,0,0,NA,0,0,0,0,11,11,NA,NA,NA,NA,0,0,0,NA,11,0,11,73.2296414732588,"Fri Oct 29 11:32:17 2021","The main experiment item","yes","red","no","5","diamond",NA,"pinging_target_expectations 4.0.osexp","C:\Users\etp-cp-ping\Desktop\LocalPC-EXP",75,"no","mono","no",18,"no","white","no","yes",1050,NA,100,"psycho",11,0,11,"C:/Users/etp-cp-ping/Desktop/LocalPC-EXP/subject-15.csv","psycho",16,12,12,"Lentiform Loewenfeld","3.3.8","['hori', 'vert', 'vert', 'hori', 'vert', 'hori', 'hori', 'vert']","yes",109,"diamond","yes",0,NA,2,"legacy",NA,1024,2,48000,-16,"experiment",15,"odd","green","no",1,"circle",240457.946699999,240470.3811,240470.421999999,NA,242601.973999999,NA,NA,67933.3735,1372.69649999962,NA,67933.3970999996,282370.803399999,286484.439399999,NA,NA,NA,NA,1372.77419999918,243478.038499999,NA,NA,282370.8182,243849.0388,282370.754199999,"New experiment",19,"[0]","dist_present",56,26,"yes","yes",1680,NA,NA,NA,NA,"NR","NR","lp",NA,NA,NA,NA,NA,NA,"practice",0,"NR","in"
"13",1191.50900000019,20633.7060999993,20633.7060999993,4,4,"n",6,"['7', '7', '4', 'space']","y","#000000","no",287296.1202,1,"neutral","psycho","psycho","psycho",0,"uniform",1,0,0,0,NA,0,0,NA,0,0,0,0,12,12,NA,NA,NA,NA,0,0,0,NA,12,0,12,73.2296414732588,"Fri Oct 29 11:32:17 2021","The main experiment item","yes","red","no","5","diamond",NA,"pinging_target_expectations 4.0.osexp","C:\Users\etp-cp-ping\Desktop\LocalPC-EXP",75,"no","mono","no",18,"no","white","no","yes",1050,NA,100,"psycho",12,0,12,"C:/Users/etp-cp-ping/Desktop/LocalPC-EXP/subject-15.csv","psycho",17,13,13,"Lentiform Loewenfeld","3.3.8","['hori', 'vert', 'vert', 'hori', 'hori', 'hori', 'vert', 'vert']","yes",109,"diamond","yes",0,NA,2,"legacy",NA,1024,2,48000,-16,"experiment",15,"odd","green","no",0,"circle",240457.946699999,240470.3811,240470.421999999,NA,242601.973999999,NA,NA,67933.3735,1372.69649999962,NA,67933.3970999996,286515.366899999,289803.120799999,NA,NA,NA,NA,1372.77419999918,243478.038499999,NA,NA,286515.381499999,243849.0388,286515.3172,"New experiment",19,"[0]","dist_present",56,16,"yes","yes",1680,NA,NA,NA,NA,"NR","R","lp","Right",NA,NA,NA,NA,NA,"practice",1,"NR","in"
"14",947.666099999915,21581.3721999992,21581.3721999992,5,5,"n",6,"['7', '7', '4', 'space']","y","#000000","no",291104.7019,1,"neutral","psycho","psycho","psycho",0,"uniform",1,0,0,0,NA,0,0,NA,0,0,0,0,13,13,NA,NA,NA,NA,0,0,0,NA,13,0,13,73.2296414732588,"Fri Oct 29 11:32:17 2021","The main experiment item","yes","green","no","3","circle",NA,"pinging_target_expectations 4.0.osexp","C:\Users\etp-cp-ping\Desktop\LocalPC-EXP",75,"no","mono","no",18,"no","white","no","yes",1050,NA,100,"psycho",13,0,13,"C:/Users/etp-cp-ping/Desktop/LocalPC-EXP/subject-15.csv","psycho",19,14,14,"Lentiform Loewenfeld","3.3.8","['vert', 'hori', 'vert', 'vert', 'hori', 'vert', 'hori', 'hori']","no",209,"None","yes",0,NA,2,"legacy",NA,1024,2,48000,-16,"experiment",15,"odd","red","no",6,"diamond",240457.946699999,240470.3811,240470.421999999,NA,242601.973999999,NA,NA,67933.3735,1372.69649999962,NA,67933.3970999996,289836.013399999,292891.207899999,NA,NA,NA,NA,1372.77419999918,243478.038499999,NA,NA,289836.028,243849.0388,289835.963199999,"New experiment",19,"[0]","dist_present",56,74,"yes","yes",1680,NA,NA,NA,NA,"NR","NR","lp",NA,NA,NA,NA,NA,NA,"practice",0,"NR","in"
"15",1296.89199999935,22878.2641999986,22878.2641999986,6,6,"n",6,"['7', '7', '4', 'space']","y","#000000","no",293628.7526,1,"neutral","psycho","psycho","psycho",0,"uniform",1,0,0,0,NA,0,0,NA,0,0,0,0,14,14,NA,NA,NA,NA,0,0,0,NA,14,0,14,73.2296414732588,"Fri Oct 29 11:32:17 2021","The main experiment item","yes","red","no","3","diamond",NA,"pinging_target_expectations 4.0.osexp","C:\Users\etp-cp-ping\Desktop\LocalPC-EXP",75,"no","mono","no",18,"no","white","no","yes",1050,NA,100,"psycho",14,0,14,"C:/Users/etp-cp-ping/Desktop/LocalPC-EXP/subject-15.csv","psycho",20,15,15,"Lentiform Loewenfeld","3.3.8","['vert', 'hori', 'hori', 'hori', 'vert', 'vert', 'hori', 'vert']","yes",109,"circles","yes",0,NA,2,"legacy",NA,1024,2,48000,-16,"experiment",15,"odd","green","no",2,"circle",240457.946699999,240470.3811,240470.421999999,NA,242601.973999999,NA,NA,67933.3735,1372.69649999962,NA,67933.3970999996,292922.313599999,296059.117399999,NA,NA,NA,NA,1372.77419999918,243478.038499999,NA,NA,292922.328199999,243849.0388,292922.265599999,"New experiment",19,"[0]","dist_present",56,34,"yes","yes",1680,NA,NA,NA,NA,"NR","R","lp",NA,NA,NA,NA,NA,NA,"practice",6,"NR","in"
"16",2000.74490000046,24879.009099999,24879.009099999,6,6,"n",6,"['7', '7', '4', 'space']","y","#000000","no",296748.328299999,1,"neutral","psycho","psycho","psycho",0,"uniform",0,0,0,0,NA,0,0,NA,0,0,0,0,15,15,NA,NA,NA,NA,0,0,0,NA,15,0,15,73.2296414732588,"Fri Oct 29 11:32:17 2021","The main experiment item","yes","red","no","6","circle",NA,"pinging_target_expectations 4.0.osexp","C:\Users\etp-cp-ping\Desktop\LocalPC-EXP",75,"no","mono","no",18,"no","white","no","yes",1050,NA,100,"psycho",15,0,15,"C:/Users/etp-cp-ping/Desktop/LocalPC-EXP/subject-15.csv","psycho",21,16,16,"Lentiform Loewenfeld","3.3.8","['vert', 'hori', 'hori', 'vert', 'hori', 'vert', 'hori', 'vert']","no",209,"None","yes",0,NA,2,"legacy",NA,1024,2,48000,-16,"experiment",15,"odd","green","no",0,"diamond",240457.946699999,240470.3811,240470.421999999,NA,242601.973999999,NA,NA,67933.3735,1372.69649999962,NA,67933.3970999996,296092.071499999,300227.502199999,NA,NA,NA,NA,1372.77419999918,243478.038499999,NA,NA,296092.086299999,243849.0388,296092.0216,"New experiment",19,"[0]","dist_present",56,17,"yes","yes",1680,NA,NA,NA,NA,"NR","NR","lp","Right",NA,"Right",NA,NA,NA,"practice",2,"NR","in"
"17",2000.92939999927,26879.9384999983,26879.9384999983,6,6,"n",6,"['7', '7', '4', 'space']","y","#000000","no",300846.384199999,1,"neutral","psycho","psycho","psycho",0,"uniform",0,0,0,0,NA,0,0,NA,0,0,0,0,16,16,NA,NA,NA,NA,0,0,0,NA,16,0,16,73.2296414732588,"Fri Oct 29 11:32:17 2021","The main experiment item","yes","green","no","None","circle",NA,"pinging_target_expectations 4.0.osexp","C:\Users\etp-cp-ping\Desktop\LocalPC-EXP",75,"no","mono","no",18,"no","white","no","yes",1050,NA,100,"psycho",16,0,16,"C:/Users/etp-cp-ping/Desktop/LocalPC-EXP/subject-15.csv","psycho",22,17,17,"Lentiform Loewenfeld","3.3.8","['hori', 'vert', 'hori', 'hori', 'vert', 'vert', 'vert', 'hori']","no",209,"None","yes",0,NA,2,"legacy",NA,1024,2,48000,-16,"experiment",15,"odd","red","no",4,"diamond",240457.946699999,240470.3811,240470.421999999,NA,242601.973999999,NA,NA,67933.3735,1372.69649999962,NA,67933.3970999996,300258.1886,303909.949999999,NA,NA,NA,NA,1372.77419999918,243478.038499999,NA,NA,300258.2033,243849.0388,300258.1387,"New experiment",19,"[0, 80.74277644016442, 93.78535220170474, 108.85626919819616, 120.89140904448925, 136.95785390973143, 151.95628682443495, 164.33099623395, 186.17568103537226, 204.26700534510462, 225.26234486951782, 242.67058161557483, 262.3418571253928, 283.44978800369057, 309.6556070153668, 332.02207250184244, 355.01385312154275, 379.56378805368263, 406.65137307781777, 428.782789875661, 445.36169381237795, 472.4446470760172, 495.78788308328774, 526.748753965959, 539.6385166071447, 599.6051092295331, 621.7700507940651, 650.3742503456729, 668.4982086481765, 668.4520083672683, 674.9692067990612, 727.8064350763045, 781.8130872129251, 800.0658787190765, 806.2812241183118]","dist_absent",56,59,"yes","no",1680,NA,NA,NA,NA,"NR","NR","lp",NA,NA,NA,NA,NA,NA,"practice",0,"NR","in"
"18",2000.44829999929,28880.3867999976,28880.3867999976,6,6,"n",6,"['7', '7', '4', 'space']","y","#000000","no",304310.972599999,1,"neutral","psycho","psycho","psycho",0,"uniform",0,0,0,0,NA,0,0,NA,0,0,0,0,17,17,NA,NA,NA,NA,0,0,0,NA,17,0,17,73.2296414732588,"Fri Oct 29 11:32:17 2021","The main experiment item","yes","red","no","3","diamond",NA,"pinging_target_expectations 4.0.osexp","C:\Users\etp-cp-ping\Desktop\LocalPC-EXP",75,"no","mono","no",18,"no","white","no","yes",1050,NA,100,"psycho",17,0,17,"C:/Users/etp-cp-ping/Desktop/LocalPC-EXP/subject-15.csv","psycho",23,18,18,"Lentiform Loewenfeld","3.3.8","['hori', 'vert', 'hori', 'vert', 'vert', 'vert', 'hori', 'hori']","yes",109,"circles","yes",0,NA,2,"legacy",NA,1024,2,48000,-16,"experiment",15,"odd","green","no",4,"circle",240457.946699999,240470.3811,240470.421999999,NA,242601.973999999,NA,NA,67933.3735,1372.69649999962,NA,67933.3970999996,303940.6248,307839.4885,NA,NA,NA,NA,1372.77419999918,243478.038499999,NA,NA,303940.6395,243849.0388,303940.574699999,"New experiment",19,"[0]","dist_present",56,54,"yes","yes",1680,NA,NA,NA,NA,"R","NR","lp","Left",NA,NA,NA,NA,NA,"practice",4,"NR","in"
"19",1256.69220000057,30137.0789999982,30137.0789999982,7,7,"n",6,"['7', '7', '4', 'space']","y","#000000","no",304310.972599999,1,"neutral","psycho","psycho","psycho",0,"uniform",1,0,0,0,NA,0,0,NA,0,0,0,0,18,18,NA,NA,NA,NA,0,0,0,NA,18,0,18,73.2296414732588,"Fri Oct 29 11:32:17 2021","The main experiment item","yes","red","no","None","circle",NA,"pinging_target_expectations 4.0.osexp","C:\Users\etp-cp-ping\Desktop\LocalPC-EXP",75,"no","mono","no",18,"no","white","no","yes",1050,NA,100,"psycho",18,0,18,"C:/Users/etp-cp-ping/Desktop/LocalPC-EXP/subject-15.csv","psycho",23,19,19,"Lentiform Loewenfeld","3.3.8","['vert', 'vert', 'vert', 'vert', 'hori', 'hori', 'hori', 'hori']","no",209,"None","yes",0,NA,2,"legacy",NA,1024,2,48000,-16,"experiment",15,"odd","green","no",4,"diamond",240457.946699999,240470.3811,240470.421999999,NA,242601.973999999,NA,NA,67933.3735,1372.69649999962,NA,67933.3970999996,307870.965999999,311019.0888,NA,NA,NA,NA,1372.77419999918,243478.038499999,NA,NA,307870.981,243849.0388,307870.9172,"New experiment",19,"[0, 73.34421294825297, 77.51702514294436, 79.08659288909111, 79.44635430837124, 80.04647523934041, 79.64486382370704, 78.36350057683997, 75.57942841805567, 75.2623615927005, 73.39242936260065]","dist_absent",56,59,"yes","yes",1680,NA,NA,NA,NA,"R","NR","lp",NA,NA,NA,NA,NA,NA,"practice",4,"R","in"
"20",2000.93769999972,32138.0166999979,32138.0166999979,7,7,"n",6,"['7', '7', '4', 'space']","y","#000000","no",311764.1607,1,"neutral","psycho","psycho","psycho",0,"uniform",0,0,0,0,NA,0,0,NA,0,0,0,0,19,19,NA,NA,NA,NA,0,0,0,NA,19,0,19,73.2296414732588,"Fri Oct 29 11:32:17 2021","The main experiment item","yes","red","no","6","diamond",NA,"pinging_target_expectations 4.0.osexp","C:\Users\etp-cp-ping\Desktop\LocalPC-EXP",75,"no","mono","no",18,"no","white","no","yes",1050,NA,100,"psycho",19,0,19,"C:/Users/etp-cp-ping/Desktop/LocalPC-EXP/subject-15.csv","psycho",24,20,20,"Lentiform Loewenfeld","3.3.8","['hori', 'vert', 'hori', 'hori', 'vert', 'vert', 'vert', 'hori']","yes",109,"circles","yes",0,NA,2,"legacy",NA,1024,2,48000,-16,"experiment",15,"odd","green","no",7,"circle",240457.946699999,240470.3811,240470.421999999,NA,242601.973999999,NA,NA,67933.3735,1372.69649999962,NA,67933.3970999996,311051.5618,314942.554599999,NA,NA,NA,NA,1372.77419999918,243478.038499999,NA,NA,311051.576399999,243849.0388,311051.5128,"New experiment",19,"[0]","dist_present",56,87,"yes","yes",1680,NA,NA,NA,NA,"NR","NR","lp",NA,NA,NA,NA,NA,NA,"practice",4,"R","in"
"21",848.977599999635,32986.9942999975,32986.9942999975,8,8,"n",6,"['7', '7', '4', 'space']","y","#000000","no",316126.7307,1,"neutral","psycho","psycho","psycho",0,"uniform",1,0,0,0,NA,0,0,NA,0,0,0,0,20,20,NA,NA,NA,NA,0,0,0,NA,20,0,20,73.2296414732588,"Fri Oct 29 11:32:17 2021","The main experiment item","yes","red","no","None","diamond",NA,"pinging_target_expectations 4.0.osexp","C:\Users\etp-cp-ping\Desktop\LocalPC-EXP",75,"no","mono","no",18,"no","white","no","yes",1050,NA,100,"psycho",20,0,20,"C:/Users/etp-cp-ping/Desktop/LocalPC-EXP/subject-15.csv","psycho",26,21,21,"Lentiform Loewenfeld","3.3.8","['hori', 'vert', 'vert', 'vert', 'hori', 'vert', 'hori', 'hori']","yes",109,"diamond","yes",0,NA,2,"legacy",NA,1024,2,48000,-16,"experiment",15,"odd","green","no",0,"circle",240457.946699999,240470.3811,240470.421999999,NA,242601.973999999,NA,NA,67933.3735,1372.69649999962,NA,67933.3970999996,314973.2881,317595.207099999,NA,NA,NA,NA,1372.77419999918,243478.038499999,NA,NA,314973.3029,243849.0388,314973.2374,"New experiment",19,"[0]","dist_absent",56,19,"yes","yes",1680,NA,NA,NA,NA,"NR","NR","lp",NA,NA,NA,NA,NA,NA,"practice",7,"NR","in"
"22",1383.88619999931,34370.8804999968,34370.8804999968,9,9,"n",6,"['7', '7', '4', 'space']","y","#000000","no",318891.784799999,1,"neutral","psycho","psycho","psycho",0,"uniform",1,0,0,0,NA,0,0,NA,0,0,0,0,21,21,NA,NA,NA,NA,0,0,0,NA,21,0,21,73.2296414732588,"Fri Oct 29 11:32:17 2021","The main experiment item","yes","red","no","6","circle",NA,"pinging_target_expectations 4.0.osexp","C:\Users\etp-cp-ping\Desktop\LocalPC-EXP",75,"no","mono","no",18,"no","white","no","yes",1050,NA,100,"psycho",21,0,21,"C:/Users/etp-cp-ping/Desktop/LocalPC-EXP/subject-15.csv","psycho",28,22,22,"Lentiform Loewenfeld","3.3.8","['vert', 'hori', 'hori', 'hori', 'vert', 'hori', 'vert', 'vert']","no",209,"None","yes",0,NA,2,"legacy",NA,1024,2,48000,-16,"experiment",15,"odd","green","no",5,"diamond",240457.946699999,240470.3811,240470.421999999,NA,242601.973999999,NA,NA,67933.3735,1372.69649999962,NA,67933.3970999996,317626.4415,320891.1454,NA,NA,NA,NA,1372.77419999918,243478.038499999,NA,NA,317626.456299999,243849.0388,317626.392499999,"New experiment",19,"[0, 75.78207776610553, 86.46258013540987, 98.2832905938824, 108.9880619896085, 122.65281830390941, 131.96066247344427, 149.00120795048517, 159.9053087795388, 173.56096846754232, 189.8442914408451, 207.89852149368105, 223.87003877852, 243.1864748958428, 258.13450484732573, 272.79073836638463, 290.90262911576616, 319.08569729274456, 337.5278394008503, 355.6956948762751, 375.6838266643757, 393.5848198917477, 413.80943681844667, 440.1019414462363, 462.88175518136967, 497.0140932574095, 516.4984592741955, 535.3638122663649, 559.5461471898105, 582.4137622464845, 634.4509965543511, 663.4635396444197, 715.3528405441682, 715.8033485455787, 717.5872963485783, 721.219691375339, 743.6101160339142, 811.6293558481083, 84.73448156283813, 99.27998095860926, 111.99515618885853, 126.76549293950409, 142.68760645939076, 156.50718833331587, 171.70493341822345, 188.0384000868618, 198.2779885345468, 220.30490065572823, 234.56053742642555, 252.0890639139661, 265.8072431394059, 283.8253599163433, 307.71723625398874, 328.6222075097115, 346.0509608848061, 368.8117681880612, 388.96014072680936, 413.83389277649434, 438.27585169636774, 456.3239522632807, 472.43564323309784, 502.27615467652976, 566.6007730109136, 569.6611538023002, 571.9197824145378, 627.1178022862518, 665.9057874733707, 691.754449406671, 706.8864194065471, 765.1391881361735, 760.5139116251531, 762.5160240295651, 810.0032215587474]","dist_present",56,67,"yes","no",1680,NA,NA,NA,NA,"NR","NR","lp",NA,NA,NA,NA,NA,NA,"practice",0,"NR","in"
"23",1641.73839999968,36012.6188999965,36012.6188999965,10,10,"n",6,"['7', '7', '4', 'space']","y","#000000","no",322083.3569,1,"neutral","psycho","psycho","psycho",0,"uniform",1,0,0,0,NA,0,0,NA,0,0,0,0,22,22,NA,NA,NA,NA,0,0,0,NA,22,0,22,73.2296414732588,"Fri Oct 29 11:32:17 2021","The main experiment item","yes","green","no","7","diamond",NA,"pinging_target_expectations 4.0.osexp","C:\Users\etp-cp-ping\Desktop\LocalPC-EXP",75,"no","mono","no",18,"no","white","no","yes",1050,NA,100,"psycho",22,0,22,"C:/Users/etp-cp-ping/Desktop/LocalPC-EXP/subject-15.csv","psycho",30,23,23,"Lentiform Loewenfeld","3.3.8","['vert', 'vert', 'hori', 'vert', 'hori', 'hori', 'hori', 'vert']","yes",109,"circles","yes",0,NA,2,"legacy",NA,1024,2,48000,-16,"experiment",15,"odd","red","no",4,"circle",240457.946699999,240470.3811,240470.421999999,NA,242601.973999999,NA,NA,67933.3735,1372.69649999962,NA,67933.3970999996,320923.629299999,324331.187999999,NA,NA,NA,NA,1372.77419999918,243478.038499999,NA,NA,320923.644199999,243849.0388,320923.579099999,"New experiment",19,"[0]","dist_present",56,58,"yes","yes",1680,NA,NA,NA,NA,"NR","NR","lp","Right",NA,NA,NA,NA,NA,"practice",5,"NR","in"
"24",1383.14799999987,37395.7668999964,37395.7668999964,11,11,"n",6,"['7', '7', '4', 'space']","y","#000000","no",325015.4046,1,"neutral","psycho","psycho","psycho",0,"uniform",1,0,0,0,NA,0,0,NA,0,0,0,0,23,23,NA,NA,NA,NA,0,0,0,NA,23,0,23,73.2296414732588,"Fri Oct 29 11:32:17 2021","The main experiment item","yes","green","no","4","diamond",NA,"pinging_target_expectations 4.0.osexp","C:\Users\etp-cp-ping\Desktop\LocalPC-EXP",75,"no","mono","no",18,"no","white","no","yes",1050,NA,100,"psycho",23,0,23,"C:/Users/etp-cp-ping/Desktop/LocalPC-EXP/subject-15.csv","psycho",31,24,24,"Lentiform Loewenfeld","3.3.8","['hori', 'vert', 'vert', 'vert', 'hori', 'hori', 'vert', 'hori']","yes",109,"circles","yes",0,NA,2,"legacy",NA,1024,2,48000,-16,"experiment",15,"odd","red","no",7,"circle",240457.946699999,240470.3811,240470.421999999,NA,242601.973999999,NA,NA,67933.3735,1372.69649999962,NA,67933.3970999996,324362.1894,327691.155199999,NA,NA,NA,NA,1372.77419999918,243478.038499999,NA,NA,324362.203899999,243849.0388,324362.1408,"New experiment",19,"[0]","dist_present",56,85,"yes","yes",1680,NA,NA,NA,NA,"NR","NR","lp",NA,"Right",NA,NA,NA,NA,"practice",4,"NR","in"
"25",2000.61400000047,39396.3808999968,39396.3808999968,11,11,"n",6,"['7', '7', '4', 'space']","y","#000000","no",328375.4873,1,"neutral","psycho","psycho","psycho",0,"uniform",0,0,0,0,NA,0,0,NA,0,0,0,0,24,24,NA,NA,NA,NA,0,0,0,NA,24,0,24,73.2296414732588,"Fri Oct 29 11:32:17 2021","The main experiment item","yes","green","no","7","diamond",NA,"pinging_target_expectations 4.0.osexp","C:\Users\etp-cp-ping\Desktop\LocalPC-EXP",75,"no","mono","no",18,"no","white","no","yes",1050,NA,100,"psycho",24,0,24,"C:/Users/etp-cp-ping/Desktop/LocalPC-EXP/subject-15.csv","psycho",32,25,25,"Lentiform Loewenfeld","3.3.8","['vert', 'hori', 'hori', 'vert', 'vert', 'hori', 'hori', 'vert']","no",209,"None","yes",0,NA,2,"legacy",NA,1024,2,48000,-16,"experiment",15,"odd","red","no",2,"circle",240457.946699999,240470.3811,240470.421999999,NA,242601.973999999,NA,NA,67933.3735,1372.69649999962,NA,67933.3970999996,327723.8407,331747.0224,NA,NA,NA,NA,1372.77419999918,243478.038499999,NA,NA,327723.8551,243849.0388,327723.7913,"New experiment",19,"[0]","dist_present",56,38,"yes","yes",1680,NA,NA,NA,NA,"NR","NR","lp",NA,NA,NA,NA,NA,NA,"practice",7,"NR","in"
"26",1999.95980000036,41396.3406999972,41396.3406999972,11,11,"n",6,"['7', '7', '4', 'space']","y","#000000","no",332246.0703,1,"neutral","psycho","psycho","psycho",0,"uniform",0,0,0,0,NA,0,0,NA,0,0,0,0,25,25,NA,NA,NA,NA,0,0,0,NA,25,0,25,73.2296414732588,"Fri Oct 29 11:32:17 2021","The main experiment item","yes","red","no","2","circle",NA,"pinging_target_expectations 4.0.osexp","C:\Users\etp-cp-ping\Desktop\LocalPC-EXP",75,"no","mono","no",18,"no","white","no","yes",1050,NA,100,"psycho",25,0,25,"C:/Users/etp-cp-ping/Desktop/LocalPC-EXP/subject-15.csv","psycho",33,26,26,"Lentiform Loewenfeld","3.3.8","['vert', 'hori', 'vert', 'hori', 'vert', 'vert', 'hori', 'hori']","yes",109,"circles","yes",0,NA,2,"legacy",NA,1024,2,48000,-16,"experiment",15,"odd","green","no",5,"diamond",240457.946699999,240470.3811,240470.421999999,NA,242601.973999999,NA,NA,67933.3735,1372.69649999962,NA,67933.3970999996,331778.0727,335487.182,NA,NA,NA,NA,1372.77419999918,243478.038499999,NA,NA,331778.0875,243849.0388,331778.024599999,"New experiment",19,"[0]","dist_present",56,63,"yes","yes",1680,NA,NA,NA,NA,"NR","NR","lp",NA,NA,NA,NA,NA,NA,"practice",2,"NR","in"
"27",2000.82670000027,43397.1673999975,43397.1673999975,11,11,"n",6,"['7', '7', '4', 'space']","y","#000000","no",336590.1404,1,"neutral","psycho","psycho","psycho",0,"uniform",0,0,0,0,NA,0,0,NA,0,0,0,0,26,26,NA,NA,NA,NA,0,0,0,NA,26,0,26,73.2296414732588,"Fri Oct 29 11:32:17 2021","The main experiment item","yes","red","no","2","circle",NA,"pinging_target_expectations 4.0.osexp","C:\Users\etp-cp-ping\Desktop\LocalPC-EXP",75,"no","mono","no",18,"no","white","no","yes",1050,NA,100,"psycho",26,0,26,"C:/Users/etp-cp-ping/Desktop/LocalPC-EXP/subject-15.csv","psycho",35,27,27,"Lentiform Loewenfeld","3.3.8","['vert', 'hori', 'vert', 'vert', 'hori', 'vert', 'hori', 'hori']","no",209,"None","yes",0,NA,2,"legacy",NA,1024,2,48000,-16,"experiment",15,"odd","green","no",5,"diamond",240457.946699999,240470.3811,240470.421999999,NA,242601.973999999,NA,NA,67933.3735,1372.69649999962,NA,67933.3970999996,335518.1882,339292.796899999,NA,NA,NA,NA,1372.77419999918,243478.038499999,NA,NA,335518.2028,243849.0388,335518.138699999,"New experiment",19,"[0, 633.9584266890217, 629.5761722849631, 615.2156413576421, 609.2332666302342, 587.5136452787069]","dist_present",56,63,"yes","no",1680,NA,NA,NA,NA,"R","R","lp",NA,NA,NA,NA,NA,NA,"practice",5,"NR","in"
"28",1533.91929999995,44931.0866999974,44931.0866999974,12,12,"n",6,"['7', '7', '4', 'space']","y","#000000","no",336590.1404,1,"neutral","psycho","psycho","psycho",0,"uniform",1,0,0,0,NA,0,0,NA,0,0,0,0,27,27,NA,NA,NA,NA,0,0,0,NA,27,0,27,73.2296414732588,"Fri Oct 29 11:32:17 2021","The main experiment item","yes","green","no","7","circle",NA,"pinging_target_expectations 4.0.osexp","C:\Users\etp-cp-ping\Desktop\LocalPC-EXP",75,"no","mono","no",18,"no","white","no","yes",1050,NA,100,"psycho",27,0,27,"C:/Users/etp-cp-ping/Desktop/LocalPC-EXP/subject-15.csv","psycho",35,28,28,"Lentiform Loewenfeld","3.3.8","['hori', 'vert', 'vert', 'hori', 'vert', 'hori', 'vert', 'hori']","no",209,"None","yes",0,NA,2,"legacy",NA,1024,2,48000,-16,"experiment",15,"odd","red","no",0,"diamond",240457.946699999,240470.3811,240470.421999999,NA,242601.973999999,NA,NA,67933.3735,1372.69649999962,NA,67933.3970999996,339323.5323,342907.240799999,NA,NA,NA,NA,1372.77419999918,243478.038499999,NA,NA,339323.546799999,243849.0388,339323.482,"New experiment",19,"[0]","dist_present",56,18,"yes","yes",1680,NA,NA,NA,NA,"NR","NR","lp","Right",NA,NA,NA,NA,NA,"practice",5,"R","in"
"29",2000.59020000027,46931.6768999977,46931.6768999977,12,12,"n",6,"['7', '7', '4', 'space']","y","#000000","no",343760.7899,1,"neutral","psycho","psycho","psycho",0,"uniform",0,0,0,0,NA,0,0,NA,0,0,0,0,28,28,NA,NA,NA,NA,0,0,0,NA,28,0,28,73.2296414732588,"Fri Oct 29 11:32:17 2021","The main experiment item","yes","green","no","1","circle",NA,"pinging_target_expectations 4.0.osexp","C:\Users\etp-cp-ping\Desktop\LocalPC-EXP",75,"no","mono","no",18,"no","white","no","yes",1050,NA,100,"psycho",28,0,28,"C:/Users/etp-cp-ping/Desktop/LocalPC-EXP/subject-15.csv","psycho",36,29,29,"Lentiform Loewenfeld","3.3.8","['hori', 'vert', 'hori', 'vert', 'vert', 'hori', 'hori', 'vert']","no",209,"None","yes",0,NA,2,"legacy",NA,1024,2,48000,-16,"experiment",15,"odd","red","no",6,"diamond",240457.946699999,240470.3811,240470.421999999,NA,242601.973999999,NA,NA,67933.3735,1372.69649999962,NA,67933.3970999996,342938.3075,346884.873399999,NA,NA,NA,NA,1372.77419999918,243478.038499999,NA,NA,342938.322,243849.0388,342938.2576,"New experiment",19,"[0]","dist_present",56,72,"yes","yes",1680,NA,NA,NA,NA,"NR","NR","lp",NA,NA,NA,NA,NA,NA,"practice",0,"NR","in"
"30",1999.61570000049,48931.2925999982,48931.2925999982,12,12,"n",6,"['7', '7', '4', 'space']","y","#000000","no",343760.7899,1,"neutral","psycho","psycho","psycho",0,"uniform",0,0,0,0,NA,0,0,NA,0,0,0,0,29,29,NA,NA,NA,NA,0,0,0,NA,29,0,29,73.2296414732588,"Fri Oct 29 11:32:17 2021","The main experiment item","yes","green","no","7","diamond",NA,"pinging_target_expectations 4.0.osexp","C:\Users\etp-cp-ping\Desktop\LocalPC-EXP",75,"no","mono","no",18,"no","white","no","yes",1050,NA,100,"psycho",29,0,29,"C:/Users/etp-cp-ping/Desktop/LocalPC-EXP/subject-15.csv","psycho",36,30,30,"Lentiform Loewenfeld","3.3.8","['hori', 'vert', 'vert', 'hori', 'vert', 'hori', 'hori', 'vert']","yes",109,"diamond","yes",0,NA,2,"legacy",NA,1024,2,48000,-16,"experiment",15,"odd","red","no",2,"circle",240457.946699999,240470.3811,240470.421999999,NA,242601.973999999,NA,NA,67933.3735,1372.69649999962,NA,67933.3970999996,346918.0348,350676.7764,NA,NA,NA,NA,1372.77419999918,243478.038499999,NA,NA,346918.049399999,243849.0388,346917.983599999,"New experiment",19,"[0]","dist_present",56,38,"yes","yes",1680,NA,NA,NA,NA,"NR","NR","lp",NA,NA,NA,NA,NA,NA,"practice",6,"NR","in"
"31",1853.03599999956,50784.3285999977,50784.3285999977,13,13,"n",6,"['7', '7', '4', 'space']","y","#000000","no",352132.9644,1,"neutral","psycho","psycho","psycho",0,"uniform",1,0,0,0,NA,0,0,NA,0,0,0,0,30,30,NA,NA,NA,NA,0,0,0,NA,30,0,30,73.2296414732588,"Fri Oct 29 11:32:17 2021","The main experiment item","yes","red","no","4","circle",NA,"pinging_target_expectations 4.0.osexp","C:\Users\etp-cp-ping\Desktop\LocalPC-EXP",75,"no","mono","no",18,"no","white","no","yes",1050,NA,100,"psycho",30,0,30,"C:/Users/etp-cp-ping/Desktop/LocalPC-EXP/subject-15.csv","psycho",38,31,31,"Lentiform Loewenfeld","3.3.8","['hori', 'vert', 'vert', 'hori', 'vert', 'hori', 'vert', 'hori']","yes",109,"diamond","yes",0,NA,2,"legacy",NA,1024,2,48000,-16,"experiment",15,"odd","green","no",5,"diamond",240457.946699999,240470.3811,240470.421999999,NA,242601.973999999,NA,NA,67933.3735,1372.69649999962,NA,67933.3970999996,350707.7812,354555.165,NA,NA,NA,NA,1372.77419999918,243478.038499999,NA,NA,350707.795699999,243849.0388,350707.732,"New experiment",19,"[0]","dist_present",56,65,"yes","yes",1680,NA,NA,NA,NA,"NR","NR","lp",NA,"Right",NA,NA,NA,NA,"practice",2,"NR","in"
"32",1999.52430000034,52783.8528999981,52783.8528999981,13,13,"n",6,"['7', '7', '4', 'space']","y","#000000","no",355376.5374,1,"neutral","psycho","psycho","psycho",0,"uniform",0,0,0,0,NA,0,0,NA,0,0,0,0,31,31,NA,NA,NA,NA,0,0,0,NA,31,0,31,73.2296414732588,"Fri Oct 29 11:32:17 2021","The main experiment item","yes","red","no","2","diamond",NA,"pinging_target_expectations 4.0.osexp","C:\Users\etp-cp-ping\Desktop\LocalPC-EXP",75,"no","mono","no",18,"no","white","no","yes",1050,NA,100,"psycho",31,0,31,"C:/Users/etp-cp-ping/Desktop/LocalPC-EXP/subject-15.csv","psycho",39,32,32,"Lentiform Loewenfeld","3.3.8","['hori', 'vert', 'hori', 'hori', 'hori', 'vert', 'vert', 'vert']","yes",109,"circles","yes",0,NA,2,"legacy",NA,1024,2,48000,-16,"experiment",15,"odd","green","no",5,"circle",240457.946699999,240470.3811,240470.421999999,NA,242601.973999999,NA,NA,67933.3735,1372.69649999962,NA,67933.3970999996,354586.5219,358479.0759,NA,NA,NA,NA,1372.77419999918,243478.038499999,NA,NA,354586.536399999,243849.0388,354586.4727,"New experiment",19,"[0]","dist_present",56,63,"yes","yes",1680,NA,NA,NA,NA,"R","NR","lp",NA,NA,NA,NA,NA,NA,"practice",5,"NR","in"
"33",1422.17400000023,54206.0268999983,54206.0268999983,14,14,"n",6,"['7', '7', '4', 'space']","y","#000000","no",355376.5374,1,"neutral","psycho","psycho","psycho",0,"uniform",1,0,0,0,NA,0,0,NA,0,0,0,0,32,32,NA,NA,NA,NA,0,0,0,NA,32,0,32,73.2296414732588,"Fri Oct 29 11:32:17 2021","The main experiment item","yes","green","no","5","circle",NA,"pinging_target_expectations 4.0.osexp","C:\Users\etp-cp-ping\Desktop\LocalPC-EXP",75,"no","mono","no",18,"no","white","no","yes",1050,NA,100,"psycho",32,0,32,"C:/Users/etp-cp-ping/Desktop/LocalPC-EXP/subject-15.csv","psycho",39,33,33,"Lentiform Loewenfeld","3.3.8","['hori', 'hori', 'vert', 'vert', 'vert', 'hori', 'vert', 'hori']","no",209,"None","yes",0,NA,2,"legacy",NA,1024,2,48000,-16,"experiment",15,"odd","red","no",1,"diamond",240457.946699999,240470.3811,240470.421999999,NA,242601.973999999,NA,NA,67933.3735,1372.69649999962,NA,67933.3970999996,358509.9615,361931.1406,NA,NA,NA,NA,1372.77419999918,243478.038499999,NA,NA,358509.9764,243849.0388,358509.9113,"New experiment",19,"[0]","dist_present",56,26,"yes","yes",1680,NA,NA,NA,NA,"NR","NR","lp",NA,NA,NA,NA,NA,NA,"practice",5,"R","in"
"34",1017.82019999973,55223.847099998,55223.847099998,15,15,"n",6,"['7', '7', '4', 'space']","y","#000000","no",362452.6706,1,"neutral","psycho","psycho","psycho",0,"uniform",1,0,0,0,NA,0,0,NA,0,0,0,0,33,33,NA,NA,NA,NA,0,0,0,NA,33,0,33,73.2296414732588,"Fri Oct 29 11:32:17 2021","The main experiment item","yes","red","no","6","diamond",NA,"pinging_target_expectations 4.0.osexp","C:\Users\etp-cp-ping\Desktop\LocalPC-EXP",75,"no","mono","no",18,"no","white","no","yes",1050,NA,100,"psycho",33,0,33,"C:/Users/etp-cp-ping/Desktop/LocalPC-EXP/subject-15.csv","psycho",40,34,34,"Lentiform Loewenfeld","3.3.8","['hori', 'hori', 'vert', 'hori', 'vert', 'hori', 'vert', 'vert']","yes",109,"diamond","yes",0,NA,2,"legacy",NA,1024,2,48000,-16,"experiment",15,"odd","green","no",5,"circle",240457.946699999,240470.3811,240470.421999999,NA,242601.973999999,NA,NA,67933.3735,1372.69649999962,NA,67933.3970999996,361962.8452,364859.1523,NA,NA,NA,NA,1372.77419999918,243478.038499999,NA,NA,361962.8598,243849.0388,361962.796399999,"New experiment",19,"[0]","dist_present",56,67,"yes","no",1680,NA,NA,NA,NA,"NR","NR","lp",NA,NA,NA,NA,NA,NA,"practice",1,"NR","in"
"35",691.914199999708,55915.7612999977,55915.7612999977,16,16,"n",6,"['7', '7', '4', 'space']","y","#000000","no",365484.259399999,1,"neutral","psycho","psycho","psycho",0,"uniform",1,0,0,0,NA,0,0,NA,0,0,0,0,34,34,NA,NA,NA,NA,0,0,0,NA,34,0,34,73.2296414732588,"Fri Oct 29 11:32:17 2021","The main experiment item","yes","green","no","6","diamond",NA,"pinging_target_expectations 4.0.osexp","C:\Users\etp-cp-ping\Desktop\LocalPC-EXP",75,"no","mono","no",18,"no","white","no","yes",1050,NA,100,"psycho",34,0,34,"C:/Users/etp-cp-ping/Desktop/LocalPC-EXP/subject-15.csv","psycho",41,35,35,"Lentiform Loewenfeld","3.3.8","['vert', 'vert', 'hori', 'hori', 'hori', 'hori', 'vert', 'vert']","yes",109,"circles","yes",0,NA,2,"legacy",NA,1024,2,48000,-16,"experiment",15,"odd","red","no",2,"circle",240457.946699999,240470.3811,240470.421999999,NA,242601.973999999,NA,NA,67933.3735,1372.69649999962,NA,67933.3970999996,364890.7246,367339.1987,NA,NA,NA,NA,1372.77419999918,243478.038499999,NA,NA,364890.739199999,243849.0388,364890.676499999,"New experiment",19,"[0]","dist_present",56,37,"yes","yes",1680,NA,NA,NA,NA,"NR","R","lp",NA,NA,NA,NA,NA,NA,"practice",5,"NR","in"
"36",1091.22610000032,57006.9873999981,57006.9873999981,17,17,"n",6,"['7', '7', '4', 'space']","y","#000000","no",368035.808,1,"neutral","psycho","psycho","psycho",0,"uniform",1,0,0,0,NA,0,0,NA,0,0,0,0,35,35,NA,NA,NA,NA,0,0,0,NA,35,0,35,73.2296414732588,"Fri Oct 29 11:32:17 2021","The main experiment item","yes","red","no","None","diamond",NA,"pinging_target_expectations 4.0.osexp","C:\Users\etp-cp-ping\Desktop\LocalPC-EXP",75,"no","mono","no",18,"no","white","no","yes",1050,NA,100,"psycho",35,0,35,"C:/Users/etp-cp-ping/Desktop/LocalPC-EXP/subject-15.csv","psycho",42,36,36,"Lentiform Loewenfeld","3.3.8","['hori', 'hori', 'vert', 'hori', 'vert', 'vert', 'vert', 'hori']","no",209,"None","yes",0,NA,2,"legacy",NA,1024,2,48000,-16,"experiment",15,"odd","green","no",3,"circle",240457.946699999,240470.3811,240470.421999999,NA,242601.973999999,NA,NA,67933.3735,1372.69649999962,NA,67933.3970999996,367370.590199999,370587.1406,NA,NA,NA,NA,1372.77419999918,243478.038499999,NA,NA,367370.6047,243849.0388,367370.5413,"New experiment",19,"[0]","dist_absent",56,49,"yes","yes",1680,NA,NA,NA,NA,"NR","NR","lp",NA,"Left",NA,NA,NA,NA,"practice",2,"NR","in"
"37",1141.94090000005,58148.9282999981,58148.9282999981,18,18,"n",6,"['7', '7', '4', 'space']","y","#000000","no",371348.8695,1,"neutral","psycho","psycho","psycho",0,"uniform",1,0,0,0,NA,0,0,NA,0,0,0,0,36,36,NA,NA,NA,NA,0,0,0,NA,36,0,36,73.2296414732588,"Fri Oct 29 11:32:17 2021","The main experiment item","yes","green","no","None","diamond",NA,"pinging_target_expectations 4.0.osexp","C:\Users\etp-cp-ping\Desktop\LocalPC-EXP",75,"no","mono","no",18,"no","white","no","yes",1050,NA,100,"psycho",36,0,36,"C:/Users/etp-cp-ping/Desktop/LocalPC-EXP/subject-15.csv","psycho",43,37,37,"Lentiform Loewenfeld","3.3.8","['hori', 'hori', 'vert', 'hori', 'vert', 'vert', 'hori', 'vert']","yes",109,"circles","yes",0,NA,2,"legacy",NA,1024,2,48000,-16,"experiment",15,"odd","red","no",6,"circle",240457.946699999,240470.3811,240470.421999999,NA,242601.973999999,NA,NA,67933.3735,1372.69649999962,NA,67933.3970999996,370618.2745,373579.1055,NA,NA,NA,NA,1372.77419999918,243478.038499999,NA,NA,370618.2892,243849.0388,370618.224899999,"New experiment",19,"[0, 89.00245969652411, 100.23093252077686, 113.51517393880086, 132.51002509428872, 147.75548477552465, 163.1761085300795, 176.0227299248478, 192.5201033283216, 206.4505013834675, 226.56684450037204, 244.40261607666545, 260.61023079499444, 276.4616867147999, 294.582486031775, 311.96099797540916, 330.84590326026733, 352.4128739879435, 369.3954520564648, 397.8160760161839, 405.9655304927289, 428.6505823973082, 454.6409019238696, 467.0412399007894, 508.495083555387, 527.0059042902072, 546.3569242150185, 584.1939147590504, 602.8015206077974, 629.6433828605528, 641.35125140268, 663.4139221883448, 727.0360501970542, 764.4738469566272, 792.1034273928501, 810.0015432084065]","dist_absent",56,79,"yes","no",1680,NA,NA,NA,NA,"NR","R","lp",NA,"Right",NA,"Right",NA,NA,"practice",3,"NR","in"
"38",820.68869999965,58969.6169999978,58969.6169999978,18,18,"n",6,"['7', '7', '4', 'space']","y","#000000","no",374453.9189,1,"neutral","psycho","psycho","psycho",0,"uniform",0,0,0,0,NA,0,0,NA,0,0,0,0,37,37,NA,NA,NA,NA,0,0,0,NA,37,0,37,73.2296414732588,"Fri Oct 29 11:32:17 2021","The main experiment item","yes","red","no","5","circle",NA,"pinging_target_expectations 4.0.osexp","C:\Users\etp-cp-ping\Desktop\LocalPC-EXP",75,"no","mono","no",18,"no","white","no","yes",1050,NA,100,"psycho",37,0,37,"C:/Users/etp-cp-ping/Desktop/LocalPC-EXP/subject-15.csv","psycho",45,38,38,"Lentiform Loewenfeld","3.3.8","['hori', 'vert', 'hori', 'vert', 'vert', 'hori', 'vert', 'hori']","no",209,"None","yes",0,NA,2,"legacy",NA,1024,2,48000,-16,"experiment",15,"odd","green","no",6,"diamond",240457.946699999,240470.3811,240470.421999999,NA,242601.973999999,NA,NA,67933.3735,1372.69649999962,NA,67933.3970999996,373610.3582,376235.1363,NA,NA,NA,NA,1372.77419999918,243478.038499999,NA,NA,373610.3724,243849.0388,373610.308599999,"New experiment",19,"[0]","dist_present",56,76,"yes","yes",1680,NA,NA,NA,NA,"R","NR","lp",NA,NA,NA,NA,NA,NA,"practice",6,"NR","in"
"39",1463.64520000044,60433.2621999982,60433.2621999982,19,19,"n",6,"['7', '7', '4', 'space']","y","#000000","no",377094.492599999,1,"neutral","psycho","psycho","psycho",0,"uniform",1,0,0,0,NA,0,0,NA,0,0,0,0,38,38,NA,NA,NA,NA,0,0,0,NA,38,0,38,73.2296414732588,"Fri Oct 29 11:32:17 2021","The main experiment item","yes","green","no","None","circle",NA,"pinging_target_expectations 4.0.osexp","C:\Users\etp-cp-ping\Desktop\LocalPC-EXP",75,"no","mono","no",18,"no","white","no","yes",1050,NA,100,"psycho",38,0,38,"C:/Users/etp-cp-ping/Desktop/LocalPC-EXP/subject-15.csv","psycho",46,39,39,"Lentiform Loewenfeld","3.3.8","['hori', 'vert', 'vert', 'hori', 'vert', 'vert', 'hori', 'hori']","no",209,"None","yes",0,NA,2,"legacy",NA,1024,2,48000,-16,"experiment",15,"odd","red","no",7,"diamond",240457.946699999,240470.3811,240470.421999999,NA,242601.973999999,NA,NA,67933.3735,1372.69649999962,NA,67933.3970999996,376266.188,379755.2228,NA,NA,NA,NA,1372.77419999918,243478.038499999,NA,NA,376266.202899999,243849.0388,376266.1388,"New experiment",19,"[0]","dist_absent",56,89,"yes","yes",1680,NA,NA,NA,NA,"NR","NR","lp",NA,"Right",NA,NA,NA,NA,"practice",6,"R","in"
"40",2000.0829000001,62433.3450999983,62433.3450999983,19,19,"n",6,"['7', '7', '4', 'space']","y","#000000","no",380380.0458,1,"neutral","psycho","psycho","psycho",0,"uniform",0,0,0,0,NA,0,0,NA,0,0,0,0,39,39,NA,NA,NA,NA,0,0,0,NA,39,0,39,73.2296414732588,"Fri Oct 29 11:32:17 2021","The main experiment item","yes","green","no","3","circle",NA,"pinging_target_expectations 4.0.osexp","C:\Users\etp-cp-ping\Desktop\LocalPC-EXP",75,"no","mono","no",18,"no","white","no","yes",1050,NA,100,"psycho",39,0,39,"C:/Users/etp-cp-ping/Desktop/LocalPC-EXP/subject-15.csv","psycho",47,40,40,"Lentiform Loewenfeld","3.3.8","['vert', 'vert', 'hori', 'hori', 'vert', 'hori', 'vert', 'hori']","no",209,"None","yes",0,NA,2,"legacy",NA,1024,2,48000,-16,"experiment",15,"odd","red","no",4,"diamond",240457.946699999,240470.3811,240470.421999999,NA,242601.973999999,NA,NA,67933.3735,1372.69649999962,NA,67933.3970999996,379786.355499999,383807.9884,NA,NA,NA,NA,1372.77419999918,243478.038499999,NA,NA,379786.3701,243849.0388,379786.306499999,"New experiment",19,"[0]","dist_present",56,54,"yes","yes",1680,NA,NA,NA,NA,"NR","NR","lp","Left",NA,NA,NA,NA,NA,"practice",7,"NR","in"
"41",973.577199999476,63406.9222999978,63406.9222999978,20,20,"n",6,"['7', '7', '4', 'space']","y","#000000","no",380380.0458,1,"neutral","psycho","psycho","psycho",0,"uniform",1,0,0,0,NA,0,0,NA,0,0,0,0,40,40,NA,NA,NA,NA,0,0,0,NA,40,0,40,73.2296414732588,"Fri Oct 29 11:32:17 2021","The main experiment item","yes","green","no","None","diamond",NA,"pinging_target_expectations 4.0.osexp","C:\Users\etp-cp-ping\Desktop\LocalPC-EXP",75,"no","mono","no",18,"no","white","no","yes",1050,NA,100,"psycho",40,0,40,"C:/Users/etp-cp-ping/Desktop/LocalPC-EXP/subject-15.csv","psycho",47,41,41,"Lentiform Loewenfeld","3.3.8","['hori', 'hori', 'vert', 'hori', 'hori', 'vert', 'vert', 'vert']","no",209,"None","yes",0,NA,2,"legacy",NA,1024,2,48000,-16,"experiment",15,"odd","red","no",3,"circle",240457.946699999,240470.3811,240470.421999999,NA,242601.973999999,NA,NA,67933.3735,1372.69649999962,NA,67933.3970999996,383838.9941,386603.1986,NA,NA,NA,NA,1372.77419999918,243478.038499999,NA,NA,383839.008499999,243849.0388,383838.9447,"New experiment",19,"[0]","dist_absent",56,49,"yes","yes",1680,NA,NA,NA,NA,"NR","NR","lp",NA,"Left",NA,NA,NA,NA,"practice",4,"NR","in"
"42",2000.18029999954,65407.1025999973,65407.1025999973,20,20,"n",6,"['7', '7', '4', 'space']","y","#000000","no",387839.198199999,1,"neutral","psycho","psycho","psycho",0,"uniform",0,0,0,0,NA,0,0,NA,0,0,0,0,41,41,NA,NA,NA,NA,0,0,0,NA,41,0,41,73.2296414732588,"Fri Oct 29 11:32:17 2021","The main experiment item","yes","green","no","5","diamond",NA,"pinging_target_expectations 4.0.osexp","C:\Users\etp-cp-ping\Desktop\LocalPC-EXP",75,"no","mono","no",18,"no","white","no","yes",1050,NA,100,"psycho",41,0,41,"C:/Users/etp-cp-ping/Desktop/LocalPC-EXP/subject-15.csv","psycho",49,42,42,"Lentiform Loewenfeld","3.3.8","['vert', 'vert', 'vert', 'hori', 'hori', 'vert', 'hori', 'hori']","no",209,"None","yes",0,NA,2,"legacy",NA,1024,2,48000,-16,"experiment",15,"odd","red","no",1,"circle",240457.946699999,240470.3811,240470.421999999,NA,242601.973999999,NA,NA,67933.3735,1372.69649999962,NA,67933.3970999996,386636.4589,390531.1567,NA,NA,NA,NA,1372.77419999918,243478.038499999,NA,NA,386636.473699999,243849.0388,386636.4079,"New experiment",19,"[0]","dist_present",56,26,"yes","yes",1680,NA,NA,NA,NA,"NR","NR","lp",NA,NA,NA,NA,NA,NA,"practice",3,"NR","in"
"43",2000.56789999962,67407.6704999969,67407.6704999969,20,20,"n",6,"['7', '7', '4', 'space']","y","#000000","no",387839.198199999,1,"neutral","psycho","psycho","psycho",0,"uniform",0,0,0,0,NA,0,0,NA,0,0,0,0,42,42,NA,NA,NA,NA,0,0,0,NA,42,0,42,73.2296414732588,"Fri Oct 29 11:32:17 2021","The main experiment item","yes","green","no","7","circle",NA,"pinging_target_expectations 4.0.osexp","C:\Users\etp-cp-ping\Desktop\LocalPC-EXP",75,"no","mono","no",18,"no","white","no","yes",1050,NA,100,"psycho",42,0,42,"C:/Users/etp-cp-ping/Desktop/LocalPC-EXP/subject-15.csv","psycho",49,43,43,"Lentiform Loewenfeld","3.3.8","['hori', 'hori', 'hori', 'vert', 'hori', 'vert', 'vert', 'vert']","no",209,"None","yes",0,NA,2,"legacy",NA,1024,2,48000,-16,"experiment",15,"odd","red","no",2,"diamond",240457.946699999,240470.3811,240470.421999999,NA,242601.973999999,NA,NA,67933.3735,1372.69649999962,NA,67933.3970999996,390562.2421,394404.712699999,NA,NA,NA,NA,1372.77419999918,243478.038499999,NA,NA,390562.257099999,243849.0388,390562.192799999,"New experiment",19,"[0]","dist_present",56,38,"yes","yes",1680,NA,NA,NA,NA,"NR","NR","lp",NA,NA,NA,NA,NA,NA,"practice",1,"NR","in"
"44",1311.40859999962,68719.0790999965,68719.0790999965,21,21,"n",6,"['7', '7', '4', 'space']","y","#000000","no",395959.3471,1,"neutral","psycho","psycho","psycho",0,"uniform",1,0,0,0,NA,0,0,NA,0,0,0,0,43,43,NA,NA,NA,NA,0,0,0,NA,43,0,43,73.2296414732588,"Fri Oct 29 11:32:17 2021","The main experiment item","yes","red","no","None","diamond",NA,"pinging_target_expectations 4.0.osexp","C:\Users\etp-cp-ping\Desktop\LocalPC-EXP",75,"no","mono","no",18,"no","white","no","yes",1050,NA,100,"psycho",43,0,43,"C:/Users/etp-cp-ping/Desktop/LocalPC-EXP/subject-15.csv","psycho",51,44,44,"Lentiform Loewenfeld","3.3.8","['vert', 'hori', 'vert', 'vert', 'hori', 'hori', 'vert', 'hori']","no",209,"None","yes",0,NA,2,"legacy",NA,1024,2,48000,-16,"experiment",15,"odd","green","no",1,"circle",240457.946699999,240470.3811,240470.421999999,NA,242601.973999999,NA,NA,67933.3735,1372.69649999962,NA,67933.3970999996,394435.5495,397771.231799999,NA,NA,NA,NA,1372.77419999918,243478.038499999,NA,NA,394435.564099999,243849.0388,394435.501499999,"New experiment",19,"[0]","dist_absent",56,29,"yes","yes",1680,NA,NA,NA,NA,"NR","NR","lp",NA,"Left",NA,NA,NA,NA,"practice",2,"NR","in"
"45",2001.11389999982,70720.1929999964,70720.1929999964,21,21,"n",6,"['7', '7', '4', 'space']","y","#000000","no",398838.945199999,1,"neutral","psycho","psycho","psycho",0,"uniform",0,0,0,0,NA,0,0,NA,0,0,0,0,44,44,NA,NA,NA,NA,0,0,0,NA,44,0,44,73.2296414732588,"Fri Oct 29 11:32:17 2021","The main experiment item","yes","green","no","None","diamond",NA,"pinging_target_expectations 4.0.osexp","C:\Users\etp-cp-ping\Desktop\LocalPC-EXP",75,"no","mono","no",18,"no","white","no","yes",1050,NA,100,"psycho",44,0,44,"C:/Users/etp-cp-ping/Desktop/LocalPC-EXP/subject-15.csv","psycho",53,45,45,"Lentiform Loewenfeld","3.3.8","['vert', 'vert', 'hori', 'vert', 'vert', 'hori', 'hori', 'hori']","yes",109,"circles","yes",0,NA,2,"legacy",NA,1024,2,48000,-16,"experiment",15,"odd","red","no",1,"circle",240457.946699999,240470.3811,240470.421999999,NA,242601.973999999,NA,NA,67933.3735,1372.69649999962,NA,67933.3970999996,397802.529899999,401697.8746,NA,NA,NA,NA,1372.77419999918,243478.038499999,NA,NA,397802.544499999,243849.0388,397802.481199999,"New experiment",19,"[0]","dist_absent",56,29,"yes","yes",1680,NA,NA,NA,NA,"R","R","lp",NA,"Left",NA,NA,NA,NA,"practice",1,"NR","in"
"46",2000.42670000036,72720.6196999967,72720.6196999967,21,21,"n",6,"['7', '7', '4', 'space']","y","#000000","no",402458.5197,1,"neutral","psycho","psycho","psycho",0,"uniform",0,0,0,0,NA,0,0,NA,0,0,0,0,45,45,NA,NA,NA,NA,0,0,0,NA,45,0,45,73.2296414732588,"Fri Oct 29 11:32:17 2021","The main experiment item","yes","green","no","1","circle",NA,"pinging_target_expectations 4.0.osexp","C:\Users\etp-cp-ping\Desktop\LocalPC-EXP",75,"no","mono","no",18,"no","white","no","yes",1050,NA,100,"psycho",45,0,45,"C:/Users/etp-cp-ping/Desktop/LocalPC-EXP/subject-15.csv","psycho",54,46,46,"Lentiform Loewenfeld","3.3.8","['hori', 'hori', 'vert', 'vert', 'vert', 'vert', 'hori', 'hori']","yes",109,"diamond","yes",0,NA,2,"legacy",NA,1024,2,48000,-16,"experiment",15,"odd","red","no",4,"diamond",240457.946699999,240470.3811,240470.421999999,NA,242601.973999999,NA,NA,67933.3735,1372.69649999962,NA,67933.3970999996,401729.2006,405652.9679,NA,NA,NA,NA,1372.77419999918,243478.038499999,NA,NA,401729.215099999,243849.0388,401729.150499999,"New experiment",19,"[0]","dist_present",56,52,"yes","yes",1680,NA,NA,NA,NA,"NR","NR","lp","Left",NA,NA,NA,NA,NA,"practice",1,"R","in"
"47",2000.11689999973,74720.7365999965,74720.7365999965,21,21,"n",6,"['7', '7', '4', 'space']","y","#000000","no",406638.6045,1,"neutral","psycho","psycho","psycho",0,"uniform",0,0,0,0,NA,0,0,NA,0,0,0,0,46,46,NA,NA,NA,NA,0,0,0,NA,46,0,46,73.2296414732588,"Fri Oct 29 11:32:17 2021","The main experiment item","yes","green","no","1","circle",NA,"pinging_target_expectations 4.0.osexp","C:\Users\etp-cp-ping\Desktop\LocalPC-EXP",75,"no","mono","no",18,"no","white","no","yes",1050,NA,100,"psycho",46,0,46,"C:/Users/etp-cp-ping/Desktop/LocalPC-EXP/subject-15.csv","psycho",55,47,47,"Lentiform Loewenfeld","3.3.8","['hori', 'hori', 'vert', 'hori', 'vert', 'vert', 'vert', 'hori']","no",209,"None","yes",0,NA,2,"legacy",NA,1024,2,48000,-16,"experiment",15,"odd","red","no",6,"diamond",240457.946699999,240470.3811,240470.421999999,NA,242601.973999999,NA,NA,67933.3735,1372.69649999962,NA,67933.3970999996,405683.9817,409604.6976,NA,NA,NA,NA,1372.77419999918,243478.038499999,NA,NA,405683.996199999,243849.0388,405683.933099999,"New experiment",19,"[0]","dist_present",56,72,"yes","yes",1680,NA,NA,NA,NA,"NR","R","lp",NA,NA,NA,NA,NA,NA,"practice",4,"NR","in"
"48",2000.22929999977,76720.9658999962,76720.9658999962,21,21,"n",6,"['7', '7', '4', 'space']","y","#000000","no",410869.1709,1,"neutral","psycho","psycho","psycho",0,"uniform",0,0,0,0,NA,0,0,NA,0,0,0,0,47,47,NA,NA,NA,NA,0,0,0,NA,47,0,47,73.2296414732588,"Fri Oct 29 11:32:17 2021","The main experiment item","yes","green","no","4","diamond",NA,"pinging_target_expectations 4.0.osexp","C:\Users\etp-cp-ping\Desktop\LocalPC-EXP",75,"no","mono","no",18,"no","white","no","yes",1050,NA,100,"psycho",47,0,47,"C:/Users/etp-cp-ping/Desktop/LocalPC-EXP/subject-15.csv","psycho",58,48,48,"Lentiform Loewenfeld","3.3.8","['hori', 'hori', 'vert', 'hori', 'vert', 'hori', 'vert', 'vert']","no",209,"None","yes",0,NA,2,"legacy",NA,1024,2,48000,-16,"experiment",15,"odd","red","no",7,"circle",240457.946699999,240470.3811,240470.421999999,NA,242601.973999999,NA,NA,67933.3735,1372.69649999962,NA,67933.3970999996,409635.874699999,413251.005599999,NA,NA,NA,NA,1372.77419999918,243478.038499999,NA,NA,409635.8893,243849.0388,409635.824499999,"New experiment",19,"[0]","dist_present",56,85,"yes","yes",1680,NA,NA,NA,NA,"NR","NR","lp",NA,"Right",NA,NA,NA,NA,"practice",6,"NR","in"
"49",861.860200000636,77582.8260999969,77582.8260999969,22,22,"n",6,"['7', '7', '4', 'space']","y","#000000","no",414203.7437,1,"neutral","psycho","psycho","psycho",0,"uniform",1,0,0,0,NA,0,0,NA,0,0,0,0,48,48,NA,NA,NA,NA,0,0,0,NA,48,0,48,73.2296414732588,"Fri Oct 29 11:32:17 2021","The main experiment item","yes","green","no","0","diamond",NA,"pinging_target_expectations 4.0.osexp","C:\Users\etp-cp-ping\Desktop\LocalPC-EXP",75,"no","mono","no",18,"no","white","no","yes",1050,NA,100,"psycho",48,0,48,"C:/Users/etp-cp-ping/Desktop/LocalPC-EXP/subject-15.csv","psycho",60,49,49,"Lentiform Loewenfeld","3.3.8","['vert', 'vert', 'vert', 'hori', 'vert', 'hori', 'hori', 'hori']","yes",109,"diamond","yes",0,NA,2,"legacy",NA,1024,2,48000,-16,"experiment",15,"odd","red","no",7,"circle",240457.946699999,240470.3811,240470.421999999,NA,242601.973999999,NA,NA,67933.3735,1372.69649999962,NA,67933.3970999996,413282.2608,415947.2234,NA,NA,NA,NA,1372.77419999918,243478.038499999,NA,NA,413282.275199999,243849.0388,413282.2109,"New experiment",19,"[0]","dist_present",56,81,"yes","yes",1680,NA,NA,NA,NA,"R","NR","lp",NA,"Right",NA,NA,NA,NA,"practice",7,"NR","in"
"50",2000.85570000013,79583.681799997,79583.681799997,22,22,"n",6,"['7', '7', '4', 'space']","y","#000000","no",414203.7437,1,"neutral","psycho","psycho","psycho",0,"uniform",0,0,0,0,NA,0,0,NA,0,0,0,0,49,49,NA,NA,NA,NA,0,0,0,NA,49,0,49,73.2296414732588,"Fri Oct 29 11:32:17 2021","The main experiment item","yes","green","no","2","circle",NA,"pinging_target_expectations 4.0.osexp","C:\Users\etp-cp-ping\Desktop\LocalPC-EXP",75,"no","mono","no",18,"no","white","no","yes",1050,NA,100,"psycho",49,0,49,"C:/Users/etp-cp-ping/Desktop/LocalPC-EXP/subject-15.csv","psycho",60,50,50,"Lentiform Loewenfeld","3.3.8","['hori', 'hori', 'vert', 'hori', 'vert', 'hori', 'vert', 'vert']","no",209,"None","yes",0,NA,2,"legacy",NA,1024,2,48000,-16,"experiment",15,"odd","red","no",7,"diamond",240457.946699999,240470.3811,240470.421999999,NA,242601.973999999,NA,NA,67933.3735,1372.69649999962,NA,67933.3970999996,415979.1799,419941.2778,NA,NA,NA,NA,1372.77419999918,243478.038499999,NA,NA,415979.1946,243849.0388,415979.1292,"New experiment",19,"[0]","dist_present",56,83,"yes","yes",1680,NA,NA,NA,NA,"R","NR","lp",NA,NA,NA,NA,NA,NA,"practice",7,"R","in"
"51",1139.72629999992,80723.4080999969,80723.4080999969,23,23,"n",6,"['7', '7', '4', 'space']","y","#000000","no",420831.390099999,1,"neutral","psycho","psycho","psycho",0,"uniform",1,0,0,0,NA,0,0,NA,0,0,0,0,50,50,NA,NA,NA,NA,0,0,0,NA,50,0,50,73.2296414732588,"Fri Oct 29 11:32:17 2021","The main experiment item","yes","red","no","None","diamond",NA,"pinging_target_expectations 4.0.osexp","C:\Users\etp-cp-ping\Desktop\LocalPC-EXP",75,"no","mono","no",18,"no","white","no","yes",1050,NA,100,"psycho",50,0,50,"C:/Users/etp-cp-ping/Desktop/LocalPC-EXP/subject-15.csv","psycho",61,51,51,"Lentiform Loewenfeld","3.3.8","['hori', 'hori', 'vert', 'hori', 'hori', 'vert', 'vert', 'vert']","yes",109,"diamond","yes",0,NA,2,"legacy",NA,1024,2,48000,-16,"experiment",15,"odd","green","no",4,"circle",240457.946699999,240470.3811,240470.421999999,NA,242601.973999999,NA,NA,67933.3735,1372.69649999962,NA,67933.3970999996,419972.1338,423003.246099999,NA,NA,NA,NA,1372.77419999918,243478.038499999,NA,NA,419972.1485,243849.0388,419972.085799999,"New experiment",19,"[0, 145.2058526743294, 140.06186541160773, 133.56386548970318, 126.80995425072712, 125.6950290276659, 120.10476327005873, 116.6105263828375, 112.73793833159253, 110.4718980058892, 104.5088022538547, 102.58852282126414, 95.524865872714, 90.00225344401437, 89.4145378564287, 83.33465094336304, 79.85298992523698, 76.02926040348378, 73.64484764044917, 80.11173244471198, 90.32836952375986, 101.21341381812663, 112.20323311947, 124.20346210955636, 135.2864987106939, 145.50965199340828, 157.9493944311692, 172.43297135227994, 184.71074224522513, 196.61060736322332, 209.8139922589946, 221.08505962381975, 234.13083948937611, 246.70682565488084, 261.85084227214844, 273.5600016753214, 288.0776510926909, 298.11732400118757, 319.0491305161411, 336.1525173262665, 348.47740242374397, 370.5358802988819, 389.4760842342318, 404.7678437197932, 417.07210584282456, 438.95928057167214, 454.59478739591793, 475.81731787293455, 494.4382739760966, 507.65632210872184, 527.2112934807408, 547.7001911981404, 612.0023844294774, 615.791791420493, 642.0321121883684, 655.1106981242768, 682.2190737851231, 699.9460562362115, 724.649061222848, 762.6853872993765, 783.0623468085147, 822.8696184480542, 812.7369567151159, 821.849329411364, 833.0100239009349]","dist_absent",56,59,"yes","no",1680,NA,NA,NA,NA,"NR","NR","lp",NA,NA,NA,NA,NA,NA,"practice",7,"R","in"
"52",1999.18580000033,82722.5938999972,82722.5938999972,23,23,"n",6,"['7', '7', '4', 'space']","y","#000000","no",423794.958,1,"neutral","psycho","psycho","psycho",0,"uniform",0,0,0,0,NA,0,0,NA,0,0,0,0,51,51,NA,NA,NA,NA,0,0,0,NA,51,0,51,73.2296414732588,"Fri Oct 29 11:32:17 2021","The main experiment item","yes","green","no","4","diamond",NA,"pinging_target_expectations 4.0.osexp","C:\Users\etp-cp-ping\Desktop\LocalPC-EXP",75,"no","mono","no",18,"no","white","no","yes",1050,NA,100,"psycho",51,0,51,"C:/Users/etp-cp-ping/Desktop/LocalPC-EXP/subject-15.csv","psycho",63,52,52,"Lentiform Loewenfeld","3.3.8","['vert', 'hori', 'vert', 'hori', 'vert', 'hori', 'hori', 'vert']","yes",109,"circles","yes",0,NA,2,"legacy",NA,1024,2,48000,-16,"experiment",15,"odd","red","no",3,"circle",240457.946699999,240470.3811,240470.421999999,NA,242601.973999999,NA,NA,67933.3735,1372.69649999962,NA,67933.3970999996,423034.8176,427002.5314,NA,NA,NA,NA,1372.77419999918,243478.038499999,NA,NA,423034.8323,243849.0388,423034.7673,"New experiment",19,"[0]","dist_present",56,45,"yes","yes",1680,NA,NA,NA,NA,"NR","NR","lp",NA,"Left",NA,NA,NA,NA,"practice",4,"NR","in"
"53",1999.59489999944,84722.1887999967,84722.1887999967,23,23,"n",6,"['7', '7', '4', 'space']","y","#000000","no",427511.5399,1,"neutral","psycho","psycho","psycho",0,"uniform",0,0,0,0,NA,0,0,NA,0,0,0,0,52,52,NA,NA,NA,NA,0,0,0,NA,52,0,52,73.2296414732588,"Fri Oct 29 11:32:17 2021","The main experiment item","yes","red","no","None","circle",NA,"pinging_target_expectations 4.0.osexp","C:\Users\etp-cp-ping\Desktop\LocalPC-EXP",75,"no","mono","no",18,"no","white","no","yes",1050,NA,100,"psycho",52,0,52,"C:/Users/etp-cp-ping/Desktop/LocalPC-EXP/subject-15.csv","psycho",64,53,53,"Lentiform Loewenfeld","3.3.8","['hori', 'vert', 'hori', 'vert', 'hori', 'vert', 'hori', 'vert']","yes",109,"diamond","yes",0,NA,2,"legacy",NA,1024,2,48000,-16,"experiment",15,"odd","green","no",1,"diamond",240457.946699999,240470.3811,240470.421999999,NA,242601.973999999,NA,NA,67933.3735,1372.69649999962,NA,67933.3970999996,427033.4316,430836.7173,NA,NA,NA,NA,1372.77419999918,243478.038499999,NA,NA,427033.4464,243849.0388,427033.382199999,"New experiment",19,"[0]","dist_absent",56,29,"yes","yes",1680,NA,NA,NA,NA,"NR","NR","lp",NA,"Left",NA,NA,NA,NA,"practice",3,"NR","in"
"54",2001.47479999939,86723.6635999961,86723.6635999961,23,23,"n",6,"['7', '7', '4', 'space']","y","#000000","no",431259.617899999,1,"neutral","psycho","psycho","psycho",0,"uniform",0,0,0,0,NA,0,0,NA,0,0,0,0,53,53,NA,NA,NA,NA,0,0,0,NA,53,0,53,73.2296414732588,"Fri Oct 29 11:32:17 2021","The main experiment item","yes","red","no","0","circle",NA,"pinging_target_expectations 4.0.osexp","C:\Users\etp-cp-ping\Desktop\LocalPC-EXP",75,"no","mono","no",18,"no","white","no","yes",1050,NA,100,"psycho",53,0,53,"C:/Users/etp-cp-ping/Desktop/LocalPC-EXP/subject-15.csv","psycho",65,54,54,"Lentiform Loewenfeld","3.3.8","['vert', 'hori', 'vert', 'vert', 'hori', 'hori', 'vert', 'hori']","yes",109,"circles","yes",0,NA,2,"legacy",NA,1024,2,48000,-16,"experiment",15,"odd","green","no",6,"diamond",240457.946699999,240470.3811,240470.421999999,NA,242601.973999999,NA,NA,67933.3735,1372.69649999962,NA,67933.3970999996,430867.7382,434778.259799999,NA,NA,NA,NA,1372.77419999918,243478.038499999,NA,NA,430867.753099999,243849.0388,430867.686699999,"New experiment",19,"[0]","dist_present",56,71,"yes","yes",1680,NA,NA,NA,NA,"NR","NR","lp",NA,"Right",NA,"Right",NA,NA,"practice",1,"NR","in"
"55",1458.6163000004,88182.2798999965,88182.2798999965,24,24,"n",6,"['7', '7', '4', 'space']","y","#000000","no",435660.1753,1,"neutral","psycho","psycho","psycho",0,"uniform",1,0,0,0,NA,0,0,NA,0,0,0,0,54,54,NA,NA,NA,NA,0,0,0,NA,54,0,54,73.2296414732588,"Fri Oct 29 11:32:17 2021","The main experiment item","yes","red","no","1","circle",NA,"pinging_target_expectations 4.0.osexp","C:\Users\etp-cp-ping\Desktop\LocalPC-EXP",75,"no","mono","no",18,"no","white","no","yes",1050,NA,100,"psycho",54,0,54,"C:/Users/etp-cp-ping/Desktop/LocalPC-EXP/subject-15.csv","psycho",67,55,55,"Lentiform Loewenfeld","3.3.8","['vert', 'vert', 'hori', 'vert', 'hori', 'vert', 'hori', 'hori']","yes",109,"diamond","yes",0,NA,2,"legacy",NA,1024,2,48000,-16,"experiment",15,"odd","green","no",7,"diamond",240457.946699999,240470.3811,240470.421999999,NA,242601.973999999,NA,NA,67933.3735,1372.69649999962,NA,67933.3970999996,434810.004,438315.1536,NA,NA,NA,NA,1372.77419999918,243478.038499999,NA,NA,434810.018499999,243849.0388,434809.955199999,"New experiment",19,"[0]","dist_present",56,82,"yes","yes",1680,NA,NA,NA,NA,"NR","NR","lp",NA,NA,NA,NA,NA,NA,"practice",6,"NR","in"
"56",2000.28079999989,90182.5606999964,90182.5606999964,24,24,"n",6,"['7', '7', '4', 'space']","y","#000000","no",439101.771899999,1,"neutral","psycho","psycho","psycho",0,"uniform",0,0,0,0,NA,0,0,NA,0,0,0,0,55,55,NA,NA,NA,NA,0,0,0,NA,55,0,55,73.2296414732588,"Fri Oct 29 11:32:17 2021","The main experiment item","yes","green","no","1","circle",NA,"pinging_target_expectations 4.0.osexp","C:\Users\etp-cp-ping\Desktop\LocalPC-EXP",75,"no","mono","no",18,"no","white","no","yes",1050,NA,100,"psycho",55,0,55,"C:/Users/etp-cp-ping/Desktop/LocalPC-EXP/subject-15.csv","psycho",69,56,56,"Lentiform Loewenfeld","3.3.8","['vert', 'hori', 'hori', 'vert', 'vert', 'vert', 'hori', 'hori']","yes",109,"circles","yes",0,NA,2,"legacy",NA,1024,2,48000,-16,"experiment",15,"odd","red","no",0,"diamond",240457.946699999,240470.3811,240470.421999999,NA,242601.973999999,NA,NA,67933.3735,1372.69649999962,NA,67933.3970999996,438346.525,442078.001399999,NA,NA,NA,NA,1372.77419999918,243478.038499999,NA,NA,438346.5394,243849.0388,438346.4761,"New experiment",19,"[0]","dist_present",56,12,"yes","yes",1680,NA,NA,NA,NA,"NR","R","lp","Left",NA,NA,NA,NA,NA,"practice",7,"NR","in"
"57",796.845200000564,796.845200000564,90979.4058999969,1,25,"n",6,"['7', '7', '4', 'space']","y","#000000","no",532170.176,2,"bias","psycho","psycho","psycho",0,"uniform",1,0,1,1,NA,1,0,NA,0,0,1,0,56,56,NA,NA,NA,NA,0,1,1,NA,56,1,56,73.2296414732588,"Fri Oct 29 11:32:17 2021","The main experiment item","yes","green","no","None","circle",NA,"pinging_target_expectations 4.0.osexp","C:\Users\etp-cp-ping\Desktop\LocalPC-EXP",75,"no","mono","no",18,"no","white","no","yes",1050,NA,4,"psycho",0,1,0,"C:/Users/etp-cp-ping/Desktop/LocalPC-EXP/subject-15.csv","psycho",1,57,1,"Lentiform Loewenfeld","3.3.8","['vert', 'vert', 'hori', 'vert', 'vert', 'hori', 'hori', 'hori']","no",204,"None","no",0,NA,2,"legacy",NA,1024,2,48000,-16,"experiment",15,"odd","red","yes",4,"diamond",240457.946699999,506267.5393,506267.588199999,NA,529167.244099999,NA,NA,67933.3735,1372.69649999962,442615.0991,67933.3970999996,531245.888199999,533995.251099999,NA,NA,NA,NA,1372.77419999918,530844.117699999,442108.632699999,NA,531245.905399999,531241.586599999,531245.8139,"New experiment",19,"[0]","dist_absent",56,59,"yes","yes",1680,-5.52489563106782,-20.2119771151182,"more away","False","NR","NR","lp",NA,NA,NA,NA,0,NA,"first",999,"NR","in"
"58",1013.59249999945,1810.43770000001,91992.9983999964,2,26,"n",6,"['7', '7', '4', 'space']","y","#000000","no",532170.176,2,"bias","psycho","psycho","psycho",0,"uniform",1,0,1,1,NA,1,0,NA,0,0,1,0,57,57,NA,NA,NA,NA,0,1,1,NA,57,1,57,73.2296414732588,"Fri Oct 29 11:32:17 2021","The main experiment item","yes","green","no","None","diamond",NA,"pinging_target_expectations 4.0.osexp","C:\Users\etp-cp-ping\Desktop\LocalPC-EXP",75,"no","mono","no",18,"no","white","no","yes",1050,NA,4,"psycho",1,1,1,"C:/Users/etp-cp-ping/Desktop/LocalPC-EXP/subject-15.csv","psycho",1,58,2,"Lentiform Loewenfeld","3.3.8","['hori', 'hori', 'hori', 'vert', 'vert', 'vert', 'hori', 'vert']","yes",104,"circles","no",0,NA,2,"legacy",NA,1024,2,48000,-16,"experiment",15,"odd","red","no",2,"circle",240457.946699999,506267.5393,506267.588199999,NA,529167.244099999,NA,NA,67933.3735,1372.69649999962,442615.0991,67933.3970999996,534027.619799999,536827.324,NA,NA,NA,NA,1372.77419999918,530844.117699999,442108.632699999,NA,534027.634499999,531241.586599999,534027.573699999,"New experiment",19,"[0]","dist_absent",56,39,"yes","yes",1680,-17.4833956310676,-21.1264146151182,"more away","False","NR","R","hp",NA,"Left",NA,"Left",2,NA,"first",4,"NR","in"
"59",1106.08109999972,2916.51879999973,93099.0794999961,3,27,"n",6,"['7', '7', '4', 'space']","y","#000000","no",537585.832299999,2,"bias","psycho","psycho","psycho",0,"uniform",1,0,1,1,NA,1,0,NA,0,0,1,0,58,58,NA,NA,NA,NA,0,1,1,NA,58,1,58,73.2296414732588,"Fri Oct 29 11:32:17 2021","The main experiment item","yes","green","no","5","diamond",NA,"pinging_target_expectations 4.0.osexp","C:\Users\etp-cp-ping\Desktop\LocalPC-EXP",75,"no","mono","no",18,"no","white","no","yes",1050,NA,4,"psycho",2,1,2,"C:/Users/etp-cp-ping/Desktop/LocalPC-EXP/subject-15.csv","psycho",2,59,3,"Lentiform Loewenfeld","3.3.8","['hori', 'vert', 'vert', 'vert', 'vert', 'hori', 'hori', 'hori']","yes",104,"circles","no",0,NA,2,"legacy",NA,1024,2,48000,-16,"experiment",15,"odd","red","no",0,"circle",240457.946699999,506267.5393,506267.588199999,NA,529167.244099999,NA,NA,67933.3735,1372.69649999962,442615.0991,67933.3970999996,536860.1014,539755.257299999,NA,NA,NA,NA,1372.77419999918,530844.117699999,442108.632699999,NA,536860.1162,531241.586599999,536860.052499999,"New experiment",19,"[0, 85.92885095681778, 94.7166827966436, 106.20980843690623, 123.03287009585523, 131.069024094744, 145.9518156371933, 161.01941468126637, 174.13288588960668, 185.56221447777247, 207.65669444201114, 222.72321026034325, 233.42808555940798, 260.27323166639997, 270.3861892017329, 297.6944795331826, 312.89860358507286, 328.9669991849253, 349.7144121960897, 376.7889039756615, 389.9262502290349, 404.6546422592403, 428.40236787257425, 444.37949832902603, 446.78298821639453, 473.45921181908415, 498.9852122370463, 502.1706723222948, 519.4941819952905, 548.7143207631361, 587.8656603420354, 645.655208672811, 635.6450927295306]","dist_present",56,16,"yes","no",1680,-13.1447081310676,-22.7864771151182,"more away","False","NR","NR","lp","Right",NA,NA,NA,4,-1,"first",2,"NR","in"
"60",1384.77890000015,4301.29769999988,94483.8583999962,4,28,"n",6,"['7', '7', '4', 'space']","y","#000000","no",540487.872899999,2,"bias","psycho","psycho","psycho",0,"uniform",1,0,1,1,NA,1,0,NA,0,0,1,0,59,59,NA,NA,NA,NA,0,1,1,NA,59,1,59,73.2296414732588,"Fri Oct 29 11:32:17 2021","The main experiment item","yes","green","yes","4","diamond",NA,"pinging_target_expectations 4.0.osexp","C:\Users\etp-cp-ping\Desktop\LocalPC-EXP",75,"no","mono","no",18,"no","white","no","yes",1050,NA,4,"psycho",3,1,3,"C:/Users/etp-cp-ping/Desktop/LocalPC-EXP/subject-15.csv","psycho",4,60,4,"Lentiform Loewenfeld","3.3.8","['vert', 'hori', 'vert', 'vert', 'hori', 'hori', 'hori', 'vert']","yes",104,"circles","no",0,NA,2,"legacy",NA,1024,2,48000,-16,"experiment",15,"odd","red","no",1,"circle",240457.946699999,506267.5393,506267.588199999,NA,529167.244099999,NA,NA,67933.3735,1372.69649999962,442615.0991,67933.3970999996,539787.4378,543083.243,NA,NA,NA,NA,1372.77419999918,530844.117699999,442108.632699999,NA,539787.452699999,531241.586599999,539787.387599999,"New experiment",19,"[0]","dist_present",56,25,"yes","yes",1680,-7.65764563106778,-4.3807271151182,"more toward","False","NR","NR","lp",NA,"Left",NA,NA,3,0,"first",0,"NR","in"
"61",977.371299999533,5278.66899999941,95461.2296999958,5,29,"n",6,"['7', '7', '4', 'space']","y","#000000","no",543449.9343,2,"bias","psycho","psycho","psycho",0,"uniform",1,0,1,1,NA,1,0,NA,0,0,1,0,60,60,NA,NA,NA,NA,0,1,1,NA,60,1,60,73.2296414732588,"Fri Oct 29 11:32:17 2021","The main experiment item","yes","red","no","3","diamond",NA,"pinging_target_expectations 4.0.osexp","C:\Users\etp-cp-ping\Desktop\LocalPC-EXP",75,"no","mono","no",18,"no","white","no","yes",1050,NA,4,"psycho",4,1,4,"C:/Users/etp-cp-ping/Desktop/LocalPC-EXP/subject-15.csv","psycho",5,61,5,"Lentiform Loewenfeld","3.3.8","['vert', 'hori', 'hori', 'hori', 'vert', 'hori', 'vert', 'vert']","no",204,"None","no",0,NA,2,"legacy",NA,1024,2,48000,-16,"experiment",15,"odd","green","no",7,"circle",240457.946699999,506267.5393,506267.588199999,NA,529167.244099999,NA,NA,67933.3735,1372.69649999962,442615.0991,67933.3970999996,543114.3819,545803.2905,NA,NA,NA,NA,1372.77419999918,530844.117699999,442108.632699999,NA,543114.3967,531241.586599999,543114.331799999,"New experiment",19,"[0]","dist_present",56,84,"yes","yes",1680,-9.58789563106772,-31.0507896151182,"more away","False","NR","NR","lp",NA,NA,NA,NA,-3,1,"first",1,"NR","in"
"62",844.048899999587,6122.717899999,96305.2785999954,6,30,"n",6,"['7', '7', '4', 'space']","y","#000000","no",546473.9973,2,"bias","psycho","psycho","psycho",0,"uniform",1,0,1,1,NA,1,0,NA,0,0,1,0,61,61,NA,NA,NA,NA,0,1,1,NA,61,1,61,73.2296414732588,"Fri Oct 29 11:32:17 2021","The main experiment item","yes","red","no","None","diamond",NA,"pinging_target_expectations 4.0.osexp","C:\Users\etp-cp-ping\Desktop\LocalPC-EXP",75,"no","mono","no",18,"no","white","no","yes",1050,NA,4,"psycho",5,1,5,"C:/Users/etp-cp-ping/Desktop/LocalPC-EXP/subject-15.csv","psycho",6,62,6,"Lentiform Loewenfeld","3.3.8","['vert', 'vert', 'hori', 'hori', 'hori', 'vert', 'hori', 'vert']","no",204,"None","no",0,NA,2,"legacy",NA,1024,2,48000,-16,"experiment",15,"odd","green","no",6,"circle",240457.946699999,506267.5393,506267.588199999,NA,529167.244099999,NA,NA,67933.3735,1372.69649999962,442615.0991,67933.3970999996,545834.576699999,548683.243599999,NA,NA,NA,NA,1372.77419999918,530844.117699999,442108.632699999,NA,545834.5916,531241.586599999,545834.5154,"New experiment",19,"[0, 218.1148533691689, 232.98789082377007, 237.2288619238576, 259.3139249676532, 271.14251286044055, 291.11245056594964, 296.70253596596297, 317.7610701188955, 334.8602292010597, 344.7084874368998, 369.29358186203746, 374.81070101676715, 393.6783843447513, 414.44985216368, 432.06265651272423, 442.32537698895175, 458.3808872838712, 490.8684801648367, 491.5165020769553, 513.4662583670387, 570.2353880231472, 574.5115074541746, 586.0602039644915]","dist_absent",56,79,"yes","no",1680,-6.30477063106772,-5.95753961511821,"more toward","False","NR","NR","lp",NA,"Right",NA,"Right",-2,NA,"first",7,"NR","in"
"63",1202.78830000013,7325.50619999913,97508.0668999955,7,31,"n",6,"['7', '7', '4', 'space']","y","#000000","no",546473.9973,2,"bias","psycho","psycho","psycho",0,"uniform",1,0,1,1,NA,1,0,NA,0,0,1,0,62,62,NA,NA,NA,NA,0,1,1,NA,62,1,62,73.2296414732588,"Fri Oct 29 11:32:17 2021","The main experiment item","yes","green","no","None","diamond",NA,"pinging_target_expectations 4.0.osexp","C:\Users\etp-cp-ping\Desktop\LocalPC-EXP",75,"no","mono","no",18,"no","white","no","yes",1050,NA,4,"psycho",6,1,6,"C:/Users/etp-cp-ping/Desktop/LocalPC-EXP/subject-15.csv","psycho",6,63,7,"Lentiform Loewenfeld","3.3.8","['vert', 'hori', 'vert', 'hori', 'vert', 'hori', 'vert', 'hori']","no",204,"None","no",0,NA,2,"legacy",NA,1024,2,48000,-16,"experiment",15,"odd","red","yes",4,"circle",240457.946699999,506267.5393,506267.588199999,NA,529167.244099999,NA,NA,67933.3735,1372.69649999962,442615.0991,67933.3970999996,548715.326199999,551835.2932,NA,NA,NA,NA,1372.77419999918,530844.117699999,442108.632699999,NA,548715.3406,531241.586599999,548715.2766,"New experiment",19,"[0, 76.54763266044299, 78.81739539217563, 79.41210104255198, 79.21295298994268, 78.27933357497463, 77.99773039817485, 76.0369444024659, 75.59098263201889]","dist_absent",56,59,"yes","yes",1680,-16.8915206310677,-25.5021021151183,"more away","False","NR","R","lp",NA,NA,NA,NA,0,NA,"first",6,"NR","ex"
"64",936.141100000008,8261.64729999914,98444.2079999955,7,31,"n",6,"['7', '7', '4', 'space']","y","#000000","no",552836.1558,2,"bias","psycho","psycho","psycho",0,"uniform",0,0,1,1,NA,1,0,NA,0,0,1,0,63,63,NA,NA,NA,NA,0,1,1,NA,63,1,63,73.2296414732588,"Fri Oct 29 11:32:17 2021","The main experiment item","yes","red","no","5","diamond",NA,"pinging_target_expectations 4.0.osexp","C:\Users\etp-cp-ping\Desktop\LocalPC-EXP",75,"no","mono","no",18,"no","white","no","yes",1050,NA,4,"psycho",7,1,7,"C:/Users/etp-cp-ping/Desktop/LocalPC-EXP/subject-15.csv","psycho",7,64,8,"Lentiform Loewenfeld","3.3.8","['vert', 'hori', 'vert', 'hori', 'hori', 'hori', 'vert', 'vert']","no",204,"None","no",0,NA,2,"legacy",NA,1024,2,48000,-16,"experiment",15,"odd","green","no",3,"circle",240457.946699999,506267.5393,506267.588199999,NA,529167.244099999,NA,NA,67933.3735,1372.69649999962,442615.0991,67933.3970999996,551867.8387,554683.2347,NA,NA,NA,NA,1372.77419999918,530844.117699999,442108.632699999,NA,551867.853199999,531241.586599999,551867.790699999,"New experiment",19,"[0, 76.4010780458214, 91.3202885057542, 105.06809321305172, 117.09692266184943, 134.34528132487034, 148.3153562429113, 167.09110090300055, 186.4266223609238, 208.78664181828876, 224.76248271830335, 240.77959334886114, 264.74126801785053, 281.0191423970187, 304.79171667182584, 325.65686584572654, 341.8246926072991, 353.3072317403084, 373.8191399063894, 400.991920918727, 417.1362743743662, 438.0279767721, 456.19785060217424, 467.3708788071137, 476.5158856249505, 536.1529841492166, 76.27745407392672, 78.41745503023363, 77.37106875488884, 77.45351633324053, 77.35068619466445, 73.88650449761575, 73.46272734912246]","dist_present",56,46,"yes","yes",1680,NA,NA,"no hp","True","NR","NR","hp",NA,NA,NA,NA,1,-1,"first",4,"NR","in"
"65",1200.68929999985,9462.33659999899,99644.8972999954,8,32,"n",6,"['7', '7', '4', 'space']","y","#000000","no",555575.666,2,"bias","psycho","psycho","psycho",0,"uniform",1,0,1,1,NA,1,0,NA,0,0,1,0,64,64,NA,NA,NA,NA,0,1,1,NA,64,1,64,73.2296414732588,"Fri Oct 29 11:32:17 2021","The main experiment item","yes","red","no","2","diamond",NA,"pinging_target_expectations 4.0.osexp","C:\Users\etp-cp-ping\Desktop\LocalPC-EXP",75,"no","mono","no",18,"no","white","no","yes",1050,NA,4,"psycho",8,1,8,"C:/Users/etp-cp-ping/Desktop/LocalPC-EXP/subject-15.csv","psycho",9,65,9,"Lentiform Loewenfeld","3.3.8","['vert', 'hori', 'vert', 'hori', 'hori', 'vert', 'vert', 'hori']","yes",104,"diamond","no",0,NA,2,"legacy",NA,1024,2,48000,-16,"experiment",15,"odd","green","no",5,"circle",240457.946699999,506267.5393,506267.588199999,NA,529167.244099999,NA,NA,67933.3735,1372.69649999962,442615.0991,67933.3970999996,554714.5733,557963.236799999,NA,NA,NA,NA,1372.77419999918,530844.117699999,442108.632699999,NA,554714.5876,531241.586599999,554714.524999999,"New experiment",19,"[0, 74.57750268177894, 84.30919071294673, 91.25483659860153, 98.70002882937123, 108.25253321408336, 118.57190237453217, 123.6738163934845, 131.85128857848102, 146.72069219628116, 155.95413828915366, 163.07215969496238, 176.75119529740894, 185.5970314117346, 199.7631358309447, 206.36129940847675, 220.70170549875536, 232.6246977429525, 251.71226255897693, 264.04734423962685, 275.6665336833064, 292.52242970391706, 306.2917649056599, 317.1502169051892, 332.816693554861, 353.06153002264966, 367.28798842716304, 383.2385844450197, 402.9691557529954, 420.6664127871023, 431.8923620956083, 457.1270477698021, 467.77728720493246, 487.64279061398327, 488.12441213653057, 506.4882931072444, 525.1614849858095, 537.0685604401766, 577.8675914363276, 650.9885289554215, 666.1123340490452, 681.2274418032652, 692.9748858592521, 714.0993430662015, 757.2254730292658]","dist_present",56,63,"yes","no",1680,-7.62595813106781,-4.06153961511816,"more toward","False","NR","NR","lp",NA,NA,NA,NA,-1,2,"first",3,"NR","in"
"66",680.676199999754,10143.0127999987,100325.573499995,9,33,"n",6,"['7', '7', '4', 'space']","y","#000000","no",558926.7565,2,"bias","psycho","psycho","psycho",0,"uniform",1,0,1,1,NA,1,0,NA,0,0,1,0,65,65,NA,NA,NA,NA,0,1,1,NA,65,1,65,73.2296414732588,"Fri Oct 29 11:32:17 2021","The main experiment item","yes","green","no","None","circle",NA,"pinging_target_expectations 4.0.osexp","C:\Users\etp-cp-ping\Desktop\LocalPC-EXP",75,"no","mono","no",18,"no","white","no","yes",1050,NA,4,"psycho",9,1,9,"C:/Users/etp-cp-ping/Desktop/LocalPC-EXP/subject-15.csv","psycho",11,66,10,"Lentiform Loewenfeld","3.3.8","['vert', 'vert', 'vert', 'hori', 'vert', 'hori', 'hori', 'hori']","yes",104,"diamond","no",0,NA,2,"legacy",NA,1024,2,48000,-16,"experiment",15,"odd","red","no",6,"diamond",240457.946699999,506267.5393,506267.588199999,NA,529167.244099999,NA,NA,67933.3735,1372.69649999962,442615.0991,67933.3970999996,557994.615199999,560747.2437,NA,NA,NA,NA,1372.77419999918,530844.117699999,442108.632699999,NA,557994.6297,531241.586599999,557994.5671,"New experiment",19,"[0, 78.23205212374869, 91.16950138834113, 103.33079436434033, 114.02073022651196, 124.32362944697351, 137.64888906255962, 151.80423689044986, 172.75673501252462, 186.99516138355057, 199.3511720123952, 216.18200930008092, 235.32429443694588, 251.8739764247192, 270.31064890081615, 286.5947236346747, 301.6448300341468, 324.29875916024076, 338.9257199268454, 362.7332256873898, 376.3638374656308, 396.94034936880803, 421.88783009136387, 430.7083462521363, 449.1263741977307, 472.49576717680765, 497.2300177623688, 500.5700990105564, 526.7620828201028, 570.6250987001911, 615.236868336218, 690.3452699364542, 710.2369731623927, 749.2281431567073, 752.7496711357769, 760.0199850374009]","dist_absent",56,79,"yes","no",1680,-12.9910206310677,-7.39722711511822,"more toward","False","NR","NR","lp",NA,"Right",NA,"Right",-2,NA,"first",5,"NR","in"
"67",869.980100000161,11012.9928999989,101195.553599995,9,33,"n",6,"['7', '7', '4', 'space']","y","#000000","no",561293.3004,2,"bias","psycho","psycho","psycho",0,"uniform",0,0,1,1,NA,1,0,NA,0,0,1,0,66,66,NA,NA,NA,NA,0,1,1,NA,66,1,66,73.2296414732588,"Fri Oct 29 11:32:17 2021","The main experiment item","yes","red","no","2","diamond",NA,"pinging_target_expectations 4.0.osexp","C:\Users\etp-cp-ping\Desktop\LocalPC-EXP",75,"no","mono","no",18,"no","white","no","yes",1050,NA,4,"psycho",10,1,10,"C:/Users/etp-cp-ping/Desktop/LocalPC-EXP/subject-15.csv","psycho",12,67,11,"Lentiform Loewenfeld","3.3.8","['hori', 'vert', 'hori', 'vert', 'vert', 'hori', 'vert', 'hori']","no",204,"None","no",0,NA,2,"legacy",NA,1024,2,48000,-16,"experiment",15,"odd","green","no",3,"circle",240457.946699999,506267.5393,506267.588199999,NA,529167.244099999,NA,NA,67933.3735,1372.69649999962,442615.0991,67933.3970999996,560778.804099999,563595.380199999,NA,NA,NA,NA,1372.77419999918,530844.117699999,442108.632699999,NA,560778.818999999,531241.586599999,560778.7548,"New experiment",19,"[0]","dist_present",56,43,"yes","yes",1680,-11.5896456310676,-18.5538521151182,"more away","False","NR","NR","lp",NA,NA,NA,NA,1,2,"first",6,"NR","in"
"68",957.197300000116,11970.190199999,102152.750899995,10,34,"n",6,"['7', '7', '4', 'space']","y","#000000","no",564354.357499999,2,"bias","psycho","psycho","psycho",0,"uniform",1,0,1,1,NA,1,0,NA,0,0,1,0,67,67,NA,NA,NA,NA,0,1,1,NA,67,1,67,73.2296414732588,"Fri Oct 29 11:32:17 2021","The main experiment item","yes","red","no","6","circle",NA,"pinging_target_expectations 4.0.osexp","C:\Users\etp-cp-ping\Desktop\LocalPC-EXP",75,"no","mono","no",18,"no","white","no","yes",1050,NA,4,"psycho",11,1,11,"C:/Users/etp-cp-ping/Desktop/LocalPC-EXP/subject-15.csv","psycho",14,68,12,"Lentiform Loewenfeld","3.3.8","['vert', 'hori', 'vert', 'hori', 'vert', 'hori', 'hori', 'vert']","no",204,"None","no",0,NA,2,"legacy",NA,1024,2,48000,-16,"experiment",15,"odd","green","yes",4,"diamond",240457.946699999,506267.5393,506267.588199999,NA,529167.244099999,NA,NA,67933.3735,1372.69649999962,442615.0991,67933.3970999996,563626.531499999,566427.261999999,NA,NA,NA,NA,1372.77419999918,530844.117699999,442108.632699999,NA,563626.546099999,531241.586599999,563626.482,"New experiment",19,"[0, 75.26820622715204, 85.96042918542771, 101.60834337955069, 109.60082447271009, 124.03308087509531, 137.51658630430606, 151.07568236403372, 161.56464008948984, 180.69712615691424, 195.86081280635148, 221.36062949634206, 231.8802706400657, 255.86089524357635, 264.7272112283629, 278.63301586369386, 297.4476976534793, 321.99778810866945, 345.12644412812534, 362.4664397079419, 380.6517534855727, 396.16168468209594, 423.26927687881204, 432.1257822719004, 465.4486851714513, 480.55887605929786, 480.89535250259485, 499.2144989475696, 522.0729888376037, 551.0710215245953, 603.1968022026481, 626.0070421694184, 658.9039811290104, 671.6461459584657, 726.7098542410016, 74.70027997680852, 76.30654059258079, 74.91130505797524, 74.91711139054118, 73.5245543527741]","dist_present",56,57,"yes","yes",1680,-12.7562081310677,-16.2264771151182,"more away","False","NR","NR","lp","Right",NA,"Right",NA,0,-2,"first",3,"NR","ex"
"69",777.507699999609,12747.6978999986,102930.258599995,11,35,"n",6,"['7', '7', '4', 'space']","y","#000000","no",567267.923099999,2,"bias","psycho","psycho","psycho",0,"uniform",1,0,1,1,NA,1,0,NA,0,0,1,0,68,68,NA,NA,NA,NA,0,1,1,NA,68,1,68,73.2296414732588,"Fri Oct 29 11:32:17 2021","The main experiment item","yes","red","yes","4","circle",NA,"pinging_target_expectations 4.0.osexp","C:\Users\etp-cp-ping\Desktop\LocalPC-EXP",75,"no","mono","no",18,"no","white","no","yes",1050,NA,4,"psycho",12,1,12,"C:/Users/etp-cp-ping/Desktop/LocalPC-EXP/subject-15.csv","psycho",15,69,13,"Lentiform Loewenfeld","3.3.8","['vert', 'hori', 'vert', 'hori', 'vert', 'vert', 'hori', 'hori']","yes",104,"circles","no",0,NA,2,"legacy",NA,1024,2,48000,-16,"experiment",15,"odd","green","no",6,"diamond",240457.946699999,506267.5393,506267.588199999,NA,529167.244099999,NA,NA,67933.3735,1372.69649999962,442615.0991,67933.3970999996,566459.3447,569243.2868,NA,NA,NA,NA,1372.77419999918,530844.117699999,442108.632699999,NA,566459.359199999,531241.586599999,566459.2949,"New experiment",19,"[0, 74.90820776019073, 86.99841009682989, 96.48676053478445, 103.78523895620468, 115.6426200045815, 127.4558965540904, 146.21059966899307, 157.1532194773309, 169.2094680626099, 190.91883092036784, 203.12431977650564, 223.16297085327426, 248.53660899501776, 257.4885119128424, 273.5061930678812, 287.4632565982012, 311.7378134051777, 321.96311900588864, 341.6369262248328, 362.4420385874822, 377.6075858857409, 394.4960070459465, 406.47309842853605, 419.71041183154466, 426.7639419439689, 451.4579160896395, 468.0641373073796, 468.5060753284094, 485.74549259782344, 498.5804700543631, 518.3264152223827]","dist_present",56,75,"yes","no",1680,-7.2042706310677,-31.2274146151182,"more away","False","NR","NR","hp",NA,"Right",NA,"Right",-2,0,"first",4,"NR","in"
"70",949.566400000476,13697.2642999991,103879.824999995,12,36,"n",6,"['7', '7', '4', 'space']","y","#000000","no",570155.9867,2,"bias","psycho","psycho","psycho",0,"uniform",1,0,1,1,NA,1,0,NA,0,0,1,0,69,69,NA,NA,NA,NA,0,1,1,NA,69,1,69,73.2296414732588,"Fri Oct 29 11:32:17 2021","The main experiment item","yes","green","no","7","circle",NA,"pinging_target_expectations 4.0.osexp","C:\Users\etp-cp-ping\Desktop\LocalPC-EXP",75,"no","mono","no",18,"no","white","no","yes",1050,NA,4,"psycho",13,1,13,"C:/Users/etp-cp-ping/Desktop/LocalPC-EXP/subject-15.csv","psycho",17,70,14,"Lentiform Loewenfeld","3.3.8","['hori', 'vert', 'vert', 'hori', 'vert', 'vert', 'hori', 'hori']","yes",104,"diamond","no",0,NA,2,"legacy",NA,1024,2,48000,-16,"experiment",15,"odd","red","no",1,"diamond",240457.946699999,506267.5393,506267.588199999,NA,529167.244099999,NA,NA,67933.3735,1372.69649999962,442615.0991,67933.3970999996,569274.706499999,572139.4283,NA,NA,NA,NA,1372.77419999918,530844.117699999,442108.632699999,NA,569274.7211,531241.586599999,569274.656,"New experiment",19,"[0, 85.70841336521363, 103.32558938556943, 118.27109826812136, 133.71313875817552, 155.1385740025861, 166.5702660009455, 187.83665467073078, 210.59973822683526, 230.69487184166724, 256.0666383652734, 270.1120734015176, 294.5007027013727, 315.93924517322273, 344.2624886887397, 364.0525512656223, 386.25883885138535, 408.82515683639804, 442.5190282753302, 463.4460708338024, 493.8031384850008, 506.1625473147929, 539.829095586195]","dist_present",56,28,"yes","no",1680,-5.2456456310678,-13.8398521151182,"more away","False","NR","NR","lp",NA,NA,NA,NA,3,-3,"first",6,"NR","in"
"71",695.107300000032,14392.3715999991,104574.932299996,13,37,"n",6,"['7', '7', '4', 'space']","y","#000000","no",573085.5474,2,"bias","psycho","psycho","psycho",0,"uniform",1,0,1,1,NA,1,0,NA,0,0,1,0,70,70,NA,NA,NA,NA,0,1,1,NA,70,1,70,73.2296414732588,"Fri Oct 29 11:32:17 2021","The main experiment item","yes","red","no","0","circle",NA,"pinging_target_expectations 4.0.osexp","C:\Users\etp-cp-ping\Desktop\LocalPC-EXP",75,"no","mono","no",18,"no","white","no","yes",1050,NA,4,"psycho",14,1,14,"C:/Users/etp-cp-ping/Desktop/LocalPC-EXP/subject-15.csv","psycho",18,71,15,"Lentiform Loewenfeld","3.3.8","['vert', 'vert', 'vert', 'hori', 'hori', 'hori', 'vert', 'hori']","no",204,"None","no",0,NA,2,"legacy",NA,1024,2,48000,-16,"experiment",15,"odd","green","yes",4,"diamond",240457.946699999,506267.5393,506267.588199999,NA,529167.244099999,NA,NA,67933.3735,1372.69649999962,442615.0991,67933.3970999996,572170.9218,574699.2807,NA,NA,NA,NA,1372.77419999918,530844.117699999,442108.632699999,NA,572170.9366,531241.586599999,572170.873,"New experiment",19,"[0, 76.9561298588508, 85.62452446264284, 91.37182770656443, 96.8723557476859, 109.24223185072319, 115.74438766682547, 120.45956317314133, 134.10810041774712, 141.69409579169894, 153.31579947179637, 165.69401683330696, 173.14526669506893, 182.74142173245252, 190.84543695269545, 197.30552315577492, 210.42300035202564, 228.99385680641834, 237.98418712240692, 246.70214450926312, 264.5021967672994, 272.0153018776089, 293.12529902786713, 299.223058821783, 315.6101355720089, 327.6566903162296, 345.18449961140027, 358.6187545067674, 364.1883321335366, 371.9987398975327, 395.9437197185617, 408.8158660556948, 413.91151093473786, 430.0758654005128, 444.7747675428257, 457.3095231576796, 459.6077445338028, 479.55981083486273, 494.4332753214714, 491.9742794254707, 500.98709097123947, 534.8945138641031, 545.0469533019275, 76.81178596978053, 83.48568210305007, 86.3391633214477, 90.75383748666104, 91.00197200441012, 90.0009430289171, 88.27486225507853, 83.68591512397421, 79.34488611983244, 76.4493333367083]","dist_present",56,51,"yes","yes",1680,NA,NA,"no hp","True","NR","NR","lp",NA,NA,NA,NA,0,4,"first",1,"NR","ex"
"72",888.084100000095,15280.4556999992,105463.016399996,14,38,"n",6,"['7', '7', '4', 'space']","y","#000000","no",575514.096499999,2,"bias","psycho","psycho","psycho",0,"uniform",1,0,1,1,NA,1,0,NA,0,0,1,0,71,71,NA,NA,NA,NA,0,1,1,NA,71,1,71,73.2296414732588,"Fri Oct 29 11:32:17 2021","The main experiment item","yes","red","no","None","circle",NA,"pinging_target_expectations 4.0.osexp","C:\Users\etp-cp-ping\Desktop\LocalPC-EXP",75,"no","mono","no",18,"no","white","no","yes",1050,NA,4,"psycho",15,1,15,"C:/Users/etp-cp-ping/Desktop/LocalPC-EXP/subject-15.csv","psycho",19,72,16,"Lentiform Loewenfeld","3.3.8","['hori', 'hori', 'vert', 'hori', 'vert', 'vert', 'vert', 'hori']","yes",104,"diamond","no",0,NA,2,"legacy",NA,1024,2,48000,-16,"experiment",15,"odd","green","no",3,"diamond",240457.946699999,506267.5393,506267.588199999,NA,529167.244099999,NA,NA,67933.3735,1372.69649999962,442615.0991,67933.3970999996,574730.7801,577595.2874,NA,NA,NA,NA,1372.77419999918,530844.117699999,442108.632699999,NA,574730.794599999,531241.586599999,574730.730499999,"New experiment",19,"[0]","dist_absent",56,49,"yes","yes",1680,-4.07464563106773,3.07033538488184,"more toward","False","NR","NR","hp",NA,"Left",NA,NA,1,NA,"first",4,"NR","in"
"73",856.178300000494,16136.6339999997,106319.194699996,15,39,"n",6,"['7', '7', '4', 'space']","y","#000000","no",578596.643899999,2,"bias","psycho","psycho","psycho",0,"uniform",1,0,1,1,NA,1,0,NA,0,0,1,0,72,72,NA,NA,NA,NA,0,1,1,NA,72,1,72,73.2296414732588,"Fri Oct 29 11:32:17 2021","The main experiment item","yes","red","no","6","circle",NA,"pinging_target_expectations 4.0.osexp","C:\Users\etp-cp-ping\Desktop\LocalPC-EXP",75,"no","mono","no",18,"no","white","no","yes",1050,NA,4,"psycho",16,1,16,"C:/Users/etp-cp-ping/Desktop/LocalPC-EXP/subject-15.csv","psycho",21,73,17,"Lentiform Loewenfeld","3.3.8","['hori', 'hori', 'vert', 'vert', 'hori', 'vert', 'hori', 'vert']","no",204,"None","no",0,NA,2,"legacy",NA,1024,2,48000,-16,"experiment",15,"odd","green","no",0,"diamond",240457.946699999,506267.5393,506267.588199999,NA,529167.244099999,NA,NA,67933.3735,1372.69649999962,442615.0991,67933.3970999996,577626.6288,580347.2499,NA,NA,NA,NA,1372.77419999918,530844.117699999,442108.632699999,NA,577626.6434,531241.586599999,577626.578699999,"New experiment",19,"[0, 76.56551368431145, 85.33799467389733, 91.86783234955647, 104.21250719215128, 109.49139496458274, 118.1278022567758, 125.8731766175686, 131.42302345384766, 140.8413666299762, 144.09525924815748, 154.03183153800992, 163.23212102546776, 174.35986674084148, 179.86620770267157, 190.12123863698045, 204.71238003608931, 210.6117852575106, 223.9351003525867, 228.10122973333566, 245.61246897702992, 256.89659041432344, 268.08582395178496, 285.4219943451411, 295.1855348759488, 310.23579741867314, 326.3886213263995, 335.29440611494374, 356.681764847198, 369.13010345455154, 387.04325419476817, 405.4103337224708, 426.3079742609293, 444.47518906716294, 444.6273249374755, 457.4157755517769, 473.9320038594437, 511.9400276298481, 513.3308126399263, 525.3391621961136, 549.7156082921423, 594.4844961371672, 674.2755092598989, 703.5224420026469, 722.8841603042305, 745.1045549584479, 751.0115629051193, 80.31591607217379, 94.1541060108994, 104.17839256788085, 121.44156455297734, 139.33622307757497, 156.92427628104363, 172.31831946330314, 198.43245555842284, 210.3669641239501, 232.11104957217407, 252.0324064265552, 269.710023076362, 291.08874670703676, 307.20045868918874, 325.64656446634166, 348.92153828672116, 364.5609562511516, 381.4006656058824, 402.3984090754654, 436.686880109497, 437.25978574748206, 480.1875423393154, 497.5954682269524, 497.3793823632017]","dist_present",56,17,"yes","no",1680,NA,NA,"no hp","True","NR","NR","lp","Right",NA,"Right",NA,4,-2,"first",3,"NR","in"
