"","RT","RT_bl","RT_tot","acc_bl","acc_tot","answer_debrief_1","answer_debrief_2","answer_debrief_3","answer_debrief_4","background","bidi","blink_onset","block_cnt","block_type","canvas_backend","clock_backend","color_backend","compensation","coordinates","correct","count_block_loop","count_block_seq","count_block_settings","count_check_session","count_drift_correct","count_end_loop","count_end_seq","count_exp_settings","count_experiment","count_feedback","count_instructions","count_log_variables","count_logger","count_new_inline_script","count_new_pygaze_drift_correct","count_new_pygaze_start_recording","count_new_pygaze_stop_recording","count_pygaze","count_start_recording","count_stop_recording","count_test_location","count_trial","count_trial_loop","count_trial_seq","d_eye","datetime","description","disable_garbage_collection","dist_color","dist_high","dist_loc","dist_shape","empty_column","experiment_file","experiment_path","eye_threshold_length","font_bold","font_family","font_italic","font_size","font_underline","foreground","form_clicks","fullscreen","height","high_loc","high_prob_loc","keyboard_backend","live_row","live_row_block_loop","live_row_trial_loop","logfile","mouse_backend","nr_blinks","nr_trials","nr_trials_bl","opensesame_codename","opensesame_version","orient_list_trial","ping","ping_trigger","ping_type","practice","repeat_cycle","response","round_decimals","sampler_backend","session_nr","sound_buf_size","sound_channels","sound_freq","sound_sample_size","start","subject_nr","subject_parity","target_color","target_high","target_loc","target_shape","time_block_loop","time_block_seq","time_block_settings","time_check_session","time_drift_correct","time_end_loop","time_end_seq","time_exp_settings","time_experiment","time_feedback","time_instructions","time_log_variables","time_logger","time_new_inline_script","time_new_pygaze_drift_correct","time_new_pygaze_start_recording","time_new_pygaze_stop_recording","time_pygaze","time_start_recording","time_stop_recording","time_test_location","time_trial","time_trial_loop","time_trial_seq","title","total_blocks","tracker_dev","trial_type","trials_in_block","trigger","uniform_coordinates","update_blinks","width","x","y","toward","containsNaN","rept","repd","prevtar","pd","nt","pd_c","nt_c","tar_dist","dist_dist","prevHP","eegTar","repteeg","tarcounter"
"1",978.675100000168,978.675100000168,978.675100000168,0,0,"n",2,"['7', '4', 'space']","n","#000000","no",1355.01309999972,1,"neutral","psycho","psycho","psycho",0,"uniform",0,0,0,0,NA,0,0,NA,0,0,0,0,0,0,NA,NA,NA,NA,0,0,0,NA,0,0,0,73.2296414732588,"Thu Nov 25 11:40:18 2021","The main experiment item","yes","green","no","1","circle",NA,"pinging_target_expectations 4.0.osexp","C:\Users\etp-cp-ping\Desktop\LocalPC-EXP",75,"no","mono","no",18,"no","white","no","yes",1050,NA,100,"psycho",0,0,0,"C:/Users/etp-cp-ping/Desktop/LocalPC-EXP/subject-21.csv","psycho",0,1,1,"Lentiform Loewenfeld","3.3.8","['hori', 'hori', 'hori', 'vert', 'vert', 'vert', 'hori', 'vert']","no",209,"None","yes",0,NA,2,"legacy",NA,1024,2,48000,-16,"experiment",21,"odd","red","no",5,"diamond",438823.1605,438850.1258,438850.1661,NA,444199.177999999,NA,NA,133404.7142,1359.8422,NA,133404.7385,444867.9344,447608.2678,NA,NA,NA,NA,1359.92229999965,444512.5839,NA,NA,444867.9495,444863.6251,444867.888,"New experiment",19,"[0]","dist_present",56,62,"yes","yes",1680,NA,NA,NA,NA,"NR","NR","lp",NA,NA,NA,NA,NA,NA,"practice",999,"NR","in"
"2",2000.37690000044,2979.05200000061,2979.05200000061,0,0,"n",2,"['7', '4', 'space']","n","#000000","no",451426.209,1,"neutral","psycho","psycho","psycho",0,"uniform",0,0,0,0,NA,0,0,NA,0,0,0,0,1,1,NA,NA,NA,NA,0,0,0,NA,1,0,1,73.2296414732588,"Thu Nov 25 11:40:18 2021","The main experiment item","yes","green","no","None","circle",NA,"pinging_target_expectations 4.0.osexp","C:\Users\etp-cp-ping\Desktop\LocalPC-EXP",75,"no","mono","no",18,"no","white","no","yes",1050,NA,100,"psycho",1,0,1,"C:/Users/etp-cp-ping/Desktop/LocalPC-EXP/subject-21.csv","psycho",2,2,2,"Lentiform Loewenfeld","3.3.8","['hori', 'hori', 'vert', 'vert', 'vert', 'hori', 'vert', 'hori']","no",209,"None","yes",0,NA,2,"legacy",NA,1024,2,48000,-16,"experiment",21,"odd","red","no",0,"diamond",438823.1605,438850.1258,438850.1661,NA,444199.177999999,NA,NA,133404.7142,1359.8422,NA,133404.7385,447648.566599999,451458.457499999,NA,NA,NA,NA,1359.92229999965,444512.5839,NA,NA,447648.5833,444863.6251,447648.5182,"New experiment",19,"[0, 75.05362389626288, 90.18654094691372, 100.89280337783313, 121.86567752807082, 137.1086381568563, 157.20572983100828, 175.2550750633184, 193.6060245364724, 214.5177315819989, 239.63003934573214, 260.5825040575414, 287.13662309051585, 311.13004986611094, 342.29678200031873, 367.58480324698587, 395.89539363963144, 424.04767482836684, 453.49379995664975, 478.6442729821333, 501.41051046024154, 528.23388641753, 552.3557220458215, 580.5152834813825, 607.0525669519646, 627.5176426958323, 649.7201164251425, 733.0620305954222, 736.6654424543382, 95.47696242552259, 128.49082194165595, 164.23401855755432, 203.14473445001207, 255.02293232323703, 334.01067645340834, 390.80138222519355, 449.2269729682182, 506.75807469112067, 559.5230111443138, 601.2837557726449, 634.1648959720225, 718.9014686186378]","dist_absent",56,19,"yes","no",1680,NA,NA,NA,NA,"NR","NR","lp",NA,NA,NA,NA,NA,NA,"practice",5,"NR","in"
"3",629.19690000033,3608.24890000094,3608.24890000094,1,1,"n",2,"['7', '4', 'space']","n","#000000","no",451426.209,1,"neutral","psycho","psycho","psycho",0,"uniform",1,0,0,0,NA,0,0,NA,0,0,0,0,2,2,NA,NA,NA,NA,0,0,0,NA,2,0,2,73.2296414732588,"Thu Nov 25 11:40:18 2021","The main experiment item","yes","green","no","6","diamond",NA,"pinging_target_expectations 4.0.osexp","C:\Users\etp-cp-ping\Desktop\LocalPC-EXP",75,"no","mono","no",18,"no","white","no","yes",1050,NA,100,"psycho",2,0,2,"C:/Users/etp-cp-ping/Desktop/LocalPC-EXP/subject-21.csv","psycho",2,3,3,"Lentiform Loewenfeld","3.3.8","['hori', 'hori', 'vert', 'vert', 'hori', 'hori', 'vert', 'vert']","yes",109,"circles","yes",0,NA,2,"legacy",NA,1024,2,48000,-16,"experiment",21,"odd","red","no",2,"circle",438823.1605,438850.1258,438850.1661,NA,444199.177999999,NA,NA,133404.7142,1359.8422,NA,133404.7385,451488.909499999,454088.2066,NA,NA,NA,NA,1359.92229999965,444512.5839,NA,NA,451488.9238,444863.6251,451488.8608,"New experiment",19,"[0]","dist_present",56,37,"yes","yes",1680,NA,NA,NA,NA,"NR","NR","lp",NA,NA,NA,NA,NA,NA,"practice",0,"NR","in"
"4",1304.69490000088,4912.94380000181,4912.94380000181,1,1,"n",2,"['7', '4', 'space']","n","#000000","no",456980.247999999,1,"neutral","psycho","psycho","psycho",0,"uniform",0,0,0,0,NA,0,0,NA,0,0,0,0,3,3,NA,NA,NA,NA,0,0,0,NA,3,0,3,73.2296414732588,"Thu Nov 25 11:40:18 2021","The main experiment item","yes","green","no","5","circle",NA,"pinging_target_expectations 4.0.osexp","C:\Users\etp-cp-ping\Desktop\LocalPC-EXP",75,"no","mono","no",18,"no","white","no","yes",1050,NA,100,"psycho",3,0,3,"C:/Users/etp-cp-ping/Desktop/LocalPC-EXP/subject-21.csv","psycho",3,4,4,"Lentiform Loewenfeld","3.3.8","['hori', 'hori', 'vert', 'vert', 'hori', 'hori', 'vert', 'vert']","yes",109,"diamond","yes",0,NA,2,"legacy",NA,1024,2,48000,-16,"experiment",21,"odd","red","no",3,"diamond",438823.1605,438850.1258,438850.1661,NA,444199.177999999,NA,NA,133404.7142,1359.8422,NA,133404.7385,454118.505299999,457320.304599999,NA,NA,NA,NA,1359.92229999965,444512.5839,NA,NA,454118.5196,444863.6251,454118.4565,"New experiment",19,"[0, 108.78477564489697, 146.45928775175437, 184.84155841896214, 227.26251340685292, 272.87517448835746, 324.2833952758921, 374.5053404158611, 462.27847416969854, 522.4126096082817, 574.8244693864984, 628.508299036702, 654.8263930792981, 762.6002116013187, 163.97639104849716, 163.54565268663214, 163.28237886123026, 162.58937750133086, 162.93952380551778, 162.15072876151797, 162.1659187682826, 162.19328923013325, 162.43113866980866, 162.10114239638204, 162.04713769142813, 161.66164156960863, 161.99292168871713, 161.9118859549147, 162.24845041813845, 162.31997669413545, 161.61344816697252, 161.44377181396524, 161.14713538615823, 159.56805967657345, 159.51706524383104, 159.6954730611099, 159.22874784606498, 158.29900364710213, 158.35798053776765, 160.4320457277394, 159.92509603803146, 159.02403474924924, 158.96591680319, 159.17766081531985, 159.38993912826837, 159.48383508928202, 159.55292226230677, 160.0320363892775, 160.1258682005888, 159.74059805507468, 160.1474547432546, 160.61648870932663, 158.63760158832287, 155.957764903178, 154.8493320764815, 150.55073982292737, 144.63268141806776, 139.1601035372718, 130.7849824736242, 120.92169611694015, 109.3941336166015, 98.80915949445173, 88.72888156530159, 78.84165354055183]","dist_present",56,46,"yes","yes",1680,NA,NA,NA,NA,"NR","NR","lp",NA,NA,NA,NA,NA,NA,"practice",2,"NR","in"
"5",990.718400000304,5903.66220000212,5903.66220000212,1,1,"n",2,"['7', '4', 'space']","n","#000000","no",456980.247999999,1,"neutral","psycho","psycho","psycho",0,"uniform",0,0,0,0,NA,0,0,NA,0,0,0,0,4,4,NA,NA,NA,NA,0,0,0,NA,4,0,4,73.2296414732588,"Thu Nov 25 11:40:18 2021","The main experiment item","yes","green","no","3","diamond",NA,"pinging_target_expectations 4.0.osexp","C:\Users\etp-cp-ping\Desktop\LocalPC-EXP",75,"no","mono","no",18,"no","white","no","yes",1050,NA,100,"psycho",4,0,4,"C:/Users/etp-cp-ping/Desktop/LocalPC-EXP/subject-21.csv","psycho",3,5,5,"Lentiform Loewenfeld","3.3.8","['vert', 'vert', 'hori', 'vert', 'hori', 'hori', 'vert', 'hori']","yes",109,"circles","yes",0,NA,2,"legacy",NA,1024,2,48000,-16,"experiment",21,"odd","red","no",2,"circle",438823.1605,438850.1258,438850.1661,NA,444199.177999999,NA,NA,133404.7142,1359.8422,NA,133404.7385,457354.1021,460200.2576,NA,NA,NA,NA,1359.92229999965,444512.5839,NA,NA,457354.1162,444863.6251,457354.0519,"New experiment",19,"[0]","dist_present",56,34,"yes","yes",1680,NA,NA,NA,NA,"NR","NR","lp",NA,NA,NA,NA,NA,NA,"practice",3,"NR","in"
"6",1451.19290000002,7354.85510000214,7354.85510000214,2,2,"n",2,"['7', '4', 'space']","n","#000000","no",456980.247999999,1,"neutral","psycho","psycho","psycho",0,"uniform",1,0,0,0,NA,0,0,NA,0,0,0,0,5,5,NA,NA,NA,NA,0,0,0,NA,5,0,5,73.2296414732588,"Thu Nov 25 11:40:18 2021","The main experiment item","yes","green","no","None","diamond",NA,"pinging_target_expectations 4.0.osexp","C:\Users\etp-cp-ping\Desktop\LocalPC-EXP",75,"no","mono","no",18,"no","white","no","yes",1050,NA,100,"psycho",5,0,5,"C:/Users/etp-cp-ping/Desktop/LocalPC-EXP/subject-21.csv","psycho",3,6,6,"Lentiform Loewenfeld","3.3.8","['vert', 'vert', 'hori', 'hori', 'hori', 'hori', 'vert', 'vert']","yes",109,"circles","yes",0,NA,2,"legacy",NA,1024,2,48000,-16,"experiment",21,"odd","red","no",6,"circle",438823.1605,438850.1258,438850.1661,NA,444199.177999999,NA,NA,133404.7142,1359.8422,NA,133404.7385,460232.2707,463480.2979,NA,NA,NA,NA,1359.92229999965,444512.5839,NA,NA,460232.285,444863.6251,460232.221199999,"New experiment",19,"[0]","dist_absent",56,79,"yes","yes",1680,NA,NA,NA,NA,"NR","NR","lp",NA,"Right",NA,"Right",NA,NA,"practice",2,"NR","in"
"7",2000.6785999994,9355.53370000154,9355.53370000154,2,2,"n",2,"['7', '4', 'space']","n","#000000","no",464018.2193,1,"neutral","psycho","psycho","psycho",0,"uniform",0,0,0,0,NA,0,0,NA,0,0,0,0,6,6,NA,NA,NA,NA,0,0,0,NA,6,0,6,73.2296414732588,"Thu Nov 25 11:40:18 2021","The main experiment item","yes","green","no","0","circle",NA,"pinging_target_expectations 4.0.osexp","C:\Users\etp-cp-ping\Desktop\LocalPC-EXP",75,"no","mono","no",18,"no","white","no","yes",1050,NA,100,"psycho",6,0,6,"C:/Users/etp-cp-ping/Desktop/LocalPC-EXP/subject-21.csv","psycho",4,7,7,"Lentiform Loewenfeld","3.3.8","['hori', 'vert', 'vert', 'vert', 'vert', 'hori', 'hori', 'hori']","yes",109,"diamond","yes",0,NA,2,"legacy",NA,1024,2,48000,-16,"experiment",21,"odd","red","no",1,"diamond",438823.1605,438850.1258,438850.1661,NA,444199.177999999,NA,NA,133404.7142,1359.8422,NA,133404.7385,463511.0813,467286.6119,NA,NA,NA,NA,1359.92229999965,444512.5839,NA,NA,463511.0955,444863.6251,463511.031,"New experiment",19,"[0, 79.52516484272424, 93.689910821012, 107.08114528153814, 116.40659977925957, 133.49344553198108, 144.28334881785233, 159.62114408396235, 175.04570831642803, 186.607764347694, 203.29004505738675, 216.738294371508, 232.96678479951711, 248.51599214056623, 267.9770694089415, 279.4573045798026, 300.1505605183728, 320.8073972995474, 340.58033266477304, 362.33592527733475, 384.5003473367112, 406.8982531397787, 429.7380921352353, 448.770064162352, 472.41240764347884, 486.6444193292049, 507.6539103035508, 525.39723763032, 547.0988034686595, 558.7149015494209, 574.3211132421677, 592.2045779900586, 619.4203276331502, 619.2315455126708, 645.9067919685748]","dist_present",56,21,"yes","no",1680,NA,NA,NA,NA,"NR","NR","lp",NA,"Left",NA,NA,NA,NA,"practice",6,"NR","in"
"8",939.80190000002,10295.3356000016,10295.3356000016,2,2,"n",2,"['7', '4', 'space']","n","#000000","no",469333.8217,1,"neutral","psycho","psycho","psycho",0,"uniform",0,0,0,0,NA,0,0,NA,0,0,0,0,7,7,NA,NA,NA,NA,0,0,0,NA,7,0,7,73.2296414732588,"Thu Nov 25 11:40:18 2021","The main experiment item","yes","red","no","7","circle",NA,"pinging_target_expectations 4.0.osexp","C:\Users\etp-cp-ping\Desktop\LocalPC-EXP",75,"no","mono","no",18,"no","white","no","yes",1050,NA,100,"psycho",7,0,7,"C:/Users/etp-cp-ping/Desktop/LocalPC-EXP/subject-21.csv","psycho",5,8,8,"Lentiform Loewenfeld","3.3.8","['hori', 'hori', 'hori', 'hori', 'vert', 'vert', 'vert', 'vert']","no",209,"None","yes",0,NA,2,"legacy",NA,1024,2,48000,-16,"experiment",21,"odd","green","no",3,"diamond",438823.1605,438850.1258,438850.1661,NA,444199.177999999,NA,NA,133404.7142,1359.8422,NA,133404.7385,467316.7161,469976.4497,NA,NA,NA,NA,1359.92229999965,444512.5839,NA,NA,467316.730399999,444863.6251,467316.6654,"New experiment",19,"[0]","dist_present",56,48,"yes","yes",1680,NA,NA,NA,NA,"NR","NR","lp",NA,NA,NA,NA,NA,NA,"practice",1,"NR","in"
"9",869.634499999869,11164.9701000014,11164.9701000014,3,3,"n",2,"['7', '4', 'space']","n","#000000","no",472845.7717,1,"neutral","psycho","psycho","psycho",0,"uniform",1,0,0,0,NA,0,0,NA,0,0,0,0,8,8,NA,NA,NA,NA,0,0,0,NA,8,0,8,73.2296414732588,"Thu Nov 25 11:40:18 2021","The main experiment item","yes","green","no","5","circle",NA,"pinging_target_expectations 4.0.osexp","C:\Users\etp-cp-ping\Desktop\LocalPC-EXP",75,"no","mono","no",18,"no","white","no","yes",1050,NA,100,"psycho",8,0,8,"C:/Users/etp-cp-ping/Desktop/LocalPC-EXP/subject-21.csv","psycho",6,9,9,"Lentiform Loewenfeld","3.3.8","['hori', 'hori', 'hori', 'vert', 'vert', 'hori', 'vert', 'vert']","no",209,"None","yes",0,NA,2,"legacy",NA,1024,2,48000,-16,"experiment",21,"odd","red","no",0,"diamond",438823.1605,438850.1258,438850.1661,NA,444199.177999999,NA,NA,133404.7142,1359.8422,NA,133404.7385,470006.7677,472968.3181,NA,NA,NA,NA,1359.92229999965,444512.5839,NA,NA,470006.782299999,444863.6251,470006.7169,"New experiment",19,"[0, 78.27800337891243, 81.40131999827847, 84.82039848998589, 86.17915427097275, 86.0772947494719, 85.52376668488088, 85.25537338729183, 81.49779538033908, 81.02171035487535, 77.27698502498062, 74.34631533904945, 73.92010510325902, 75.88965242839944, 81.63734882780925, 105.12335095504146, 128.53486979768115, 159.03332653942712, 186.65695495482726, 223.86692314262137, 260.821657702088, 315.2203113885821, 398.4259180118122, 457.1418172505133, 515.6385133290796, 568.7022507428645, 612.9399234793931, 674.8284828565069, 713.787929828975]","dist_present",56,16,"yes","no",1680,NA,NA,NA,NA,"NR","NR","lp","Right",NA,NA,NA,NA,NA,"practice",3,"NR","in"
"10",2000.74529999983,13165.7154000013,13165.7154000013,3,3,"n",2,"['7', '4', 'space']","n","#000000","no",472845.7717,1,"neutral","psycho","psycho","psycho",0,"uniform",0,0,0,0,NA,0,0,NA,0,0,0,0,9,9,NA,NA,NA,NA,0,0,0,NA,9,0,9,73.2296414732588,"Thu Nov 25 11:40:18 2021","The main experiment item","yes","red","no","None","circle",NA,"pinging_target_expectations 4.0.osexp","C:\Users\etp-cp-ping\Desktop\LocalPC-EXP",75,"no","mono","no",18,"no","white","no","yes",1050,NA,100,"psycho",9,0,9,"C:/Users/etp-cp-ping/Desktop/LocalPC-EXP/subject-21.csv","psycho",6,10,10,"Lentiform Loewenfeld","3.3.8","['vert', 'vert', 'vert', 'hori', 'hori', 'hori', 'hori', 'vert']","yes",109,"diamond","yes",0,NA,2,"legacy",NA,1024,2,48000,-16,"experiment",21,"odd","green","no",6,"diamond",438823.1605,438850.1258,438850.1661,NA,444199.177999999,NA,NA,133404.7142,1359.8422,NA,133404.7385,472999.0003,477015.2304,NA,NA,NA,NA,1359.92229999965,444512.5839,NA,NA,472999.0146,444863.6251,472998.9505,"New experiment",19,"[0]","dist_absent",56,79,"yes","yes",1680,NA,NA,NA,NA,"NR","NR","lp",NA,"Right",NA,"Right",NA,NA,"practice",0,"NR","in"
"11",671.167200000084,13836.8826000014,13836.8826000014,3,3,"n",2,"['7', '4', 'space']","n","#000000","no",472845.7717,1,"neutral","psycho","psycho","psycho",0,"uniform",0,0,0,0,NA,0,0,NA,0,0,0,0,10,10,NA,NA,NA,NA,0,0,0,NA,10,0,10,73.2296414732588,"Thu Nov 25 11:40:18 2021","The main experiment item","yes","green","no","6","diamond",NA,"pinging_target_expectations 4.0.osexp","C:\Users\etp-cp-ping\Desktop\LocalPC-EXP",75,"no","mono","no",18,"no","white","no","yes",1050,NA,100,"psycho",10,0,10,"C:/Users/etp-cp-ping/Desktop/LocalPC-EXP/subject-21.csv","psycho",6,11,11,"Lentiform Loewenfeld","3.3.8","['hori', 'vert', 'vert', 'hori', 'vert', 'hori', 'hori', 'vert']","yes",109,"diamond","yes",0,NA,2,"legacy",NA,1024,2,48000,-16,"experiment",21,"odd","red","no",2,"circle",438823.1605,438850.1258,438850.1661,NA,444199.177999999,NA,NA,133404.7142,1359.8422,NA,133404.7385,477047.2444,479800.2935,NA,NA,NA,NA,1359.92229999965,444512.5839,NA,NA,477047.2593,444863.6251,477047.1975,"New experiment",19,"[0]","dist_present",56,37,"yes","yes",1680,NA,NA,NA,NA,"NR","NR","lp",NA,NA,NA,NA,NA,NA,"practice",6,"NR","in"
"12",2000.64920000022,15837.5318000016,15837.5318000016,3,3,"n",2,"['7', '4', 'space']","n","#000000","no",482752.7997,1,"neutral","psycho","psycho","psycho",0,"uniform",0,0,0,0,NA,0,0,NA,0,0,0,0,11,11,NA,NA,NA,NA,0,0,0,NA,11,0,11,73.2296414732588,"Thu Nov 25 11:40:18 2021","The main experiment item","yes","green","no","4","diamond",NA,"pinging_target_expectations 4.0.osexp","C:\Users\etp-cp-ping\Desktop\LocalPC-EXP",75,"no","mono","no",18,"no","white","no","yes",1050,NA,100,"psycho",11,0,11,"C:/Users/etp-cp-ping/Desktop/LocalPC-EXP/subject-21.csv","psycho",7,12,12,"Lentiform Loewenfeld","3.3.8","['hori', 'vert', 'vert', 'vert', 'hori', 'vert', 'hori', 'hori']","no",209,"None","yes",0,NA,2,"legacy",NA,1024,2,48000,-16,"experiment",21,"odd","red","no",3,"circle",438823.1605,438850.1258,438850.1661,NA,444199.177999999,NA,NA,133404.7142,1359.8422,NA,133404.7385,479830.6237,483658.255899999,NA,NA,NA,NA,1359.92229999965,444512.5839,NA,NA,479830.6381,444863.6251,479830.5734,"New experiment",19,"[0]","dist_present",56,45,"yes","yes",1680,NA,NA,NA,NA,"NR","NR","lp",NA,"Left",NA,NA,NA,NA,"practice",2,"NR","in"
"13",924.800800000434,16762.332600002,16762.332600002,4,4,"n",2,"['7', '4', 'space']","n","#000000","no",482752.7997,1,"neutral","psycho","psycho","psycho",0,"uniform",1,0,0,0,NA,0,0,NA,0,0,0,0,12,12,NA,NA,NA,NA,0,0,0,NA,12,0,12,73.2296414732588,"Thu Nov 25 11:40:18 2021","The main experiment item","yes","red","no","2","diamond",NA,"pinging_target_expectations 4.0.osexp","C:\Users\etp-cp-ping\Desktop\LocalPC-EXP",75,"no","mono","no",18,"no","white","no","yes",1050,NA,100,"psycho",12,0,12,"C:/Users/etp-cp-ping/Desktop/LocalPC-EXP/subject-21.csv","psycho",7,13,13,"Lentiform Loewenfeld","3.3.8","['vert', 'hori', 'hori', 'vert', 'hori', 'hori', 'vert', 'vert']","no",209,"None","yes",0,NA,2,"legacy",NA,1024,2,48000,-16,"experiment",21,"odd","green","no",5,"circle",438823.1605,438850.1258,438850.1661,NA,444199.177999999,NA,NA,133404.7142,1359.8422,NA,133404.7385,483688.3911,486536.2906,NA,NA,NA,NA,1359.92229999965,444512.5839,NA,NA,483688.4054,444863.6251,483688.3414,"New experiment",19,"[0]","dist_present",56,63,"yes","yes",1680,NA,NA,NA,NA,"NR","NR","lp",NA,NA,NA,NA,NA,NA,"practice",3,"NR","in"
"14",1266.52379999997,18028.856400002,18028.856400002,4,4,"n",2,"['7', '4', 'space']","n","#000000","no",482752.7997,1,"neutral","psycho","psycho","psycho",0,"uniform",0,0,0,0,NA,0,0,NA,0,0,0,0,13,13,NA,NA,NA,NA,0,0,0,NA,13,0,13,73.2296414732588,"Thu Nov 25 11:40:18 2021","The main experiment item","yes","red","no","3","circle",NA,"pinging_target_expectations 4.0.osexp","C:\Users\etp-cp-ping\Desktop\LocalPC-EXP",75,"no","mono","no",18,"no","white","no","yes",1050,NA,100,"psycho",13,0,13,"C:/Users/etp-cp-ping/Desktop/LocalPC-EXP/subject-21.csv","psycho",7,14,14,"Lentiform Loewenfeld","3.3.8","['hori', 'vert', 'hori', 'hori', 'vert', 'vert', 'vert', 'hori']","yes",109,"circles","yes",0,NA,2,"legacy",NA,1024,2,48000,-16,"experiment",21,"odd","green","no",7,"diamond",438823.1605,438850.1258,438850.1661,NA,444199.177999999,NA,NA,133404.7142,1359.8422,NA,133404.7385,486566.4784,489944.2638,NA,NA,NA,NA,1359.92229999965,444512.5839,NA,NA,486566.492599999,444863.6251,486566.4292,"New experiment",19,"[0]","dist_present",56,84,"yes","yes",1680,NA,NA,NA,NA,"NR","NR","lp",NA,NA,NA,NA,NA,NA,"practice",5,"NR","in"
"15",1072.97420000035,19101.8306000023,19101.8306000023,5,5,"n",2,"['7', '4', 'space']","n","#000000","no",491132.7899,1,"neutral","psycho","psycho","psycho",0,"uniform",1,0,0,0,NA,0,0,NA,0,0,0,0,14,14,NA,NA,NA,NA,0,0,0,NA,14,0,14,73.2296414732588,"Thu Nov 25 11:40:18 2021","The main experiment item","yes","red","no","None","circle",NA,"pinging_target_expectations 4.0.osexp","C:\Users\etp-cp-ping\Desktop\LocalPC-EXP",75,"no","mono","no",18,"no","white","no","yes",1050,NA,100,"psycho",14,0,14,"C:/Users/etp-cp-ping/Desktop/LocalPC-EXP/subject-21.csv","psycho",8,15,15,"Lentiform Loewenfeld","3.3.8","['hori', 'vert', 'hori', 'hori', 'vert', 'hori', 'vert', 'vert']","no",209,"None","yes",0,NA,2,"legacy",NA,1024,2,48000,-16,"experiment",21,"odd","green","no",0,"diamond",438823.1605,438850.1258,438850.1661,NA,444199.177999999,NA,NA,133404.7142,1359.8422,NA,133404.7385,489974.6364,492888.2421,NA,NA,NA,NA,1359.92229999965,444512.5839,NA,NA,489974.6504,444863.6251,489974.5889,"New experiment",19,"[0, 84.66885155610248, 97.22472320227277, 108.66480067735894, 130.28911993313164, 145.99865549801189, 165.12871888702364, 180.24584541686463, 200.6470975710155, 222.97608304668046, 240.36723047928652, 266.4887602706476, 287.83443536626737, 311.9636232268084, 340.98102731138704, 359.7602755777655, 386.4713934201718, 413.0380161713151, 441.60144769735416, 468.4114551032814, 496.92373505099596, 527.6783033405935, 547.3883296013805, 570.3607122600984, 589.174629244266, 617.7679323280639, 645.0978727524146, 674.388378842325, 721.3587184363028, 735.0205779432301]","dist_absent",56,19,"yes","no",1680,NA,NA,NA,NA,"NR","NR","lp",NA,NA,NA,NA,NA,NA,"practice",7,"NR","in"
"16",1035.90739999979,20137.7380000021,20137.7380000021,5,5,"n",2,"['7', '4', 'space']","n","#000000","no",491132.7899,1,"neutral","psycho","psycho","psycho",0,"uniform",0,0,0,0,NA,0,0,NA,0,0,0,0,15,15,NA,NA,NA,NA,0,0,0,NA,15,0,15,73.2296414732588,"Thu Nov 25 11:40:18 2021","The main experiment item","yes","red","no","2","circle",NA,"pinging_target_expectations 4.0.osexp","C:\Users\etp-cp-ping\Desktop\LocalPC-EXP",75,"no","mono","no",18,"no","white","no","yes",1050,NA,100,"psycho",15,0,15,"C:/Users/etp-cp-ping/Desktop/LocalPC-EXP/subject-21.csv","psycho",8,16,16,"Lentiform Loewenfeld","3.3.8","['hori', 'hori', 'vert', 'hori', 'vert', 'vert', 'vert', 'hori']","no",209,"None","yes",0,NA,2,"legacy",NA,1024,2,48000,-16,"experiment",21,"odd","green","no",0,"diamond",438823.1605,438850.1258,438850.1661,NA,444199.177999999,NA,NA,133404.7142,1359.8422,NA,133404.7385,492918.625,496104.2661,NA,NA,NA,NA,1359.92229999965,444512.5839,NA,NA,492918.6393,444863.6251,492918.5759,"New experiment",19,"[0, 74.02499058397628, 91.1396832359632, 115.41860860538516, 134.6298902496528, 170.80422186536126, 192.743835410805, 217.88458307215794, 243.03598700399218, 271.1180821663133, 300.0930423345699, 347.2849983066191, 370.0994249134822, 393.2232724075367, 411.7204231020331, 428.4973601337618, 445.5158117130398, 450.8492339170972, 471.026183172842, 473.315565800558, 479.35931321608155, 477.15083636830497, 477.71356480635967, 478.38616298452797, 471.90356099409394, 472.16764773063045, 466.1817121312099, 453.9562203561044, 449.4668993630655, 440.49446822643154, 430.72031483246246, 428.14539573053224, 408.166087267086, 398.8580661447279, 391.64193391961675, 377.51473342782054, 374.327166230198, 352.7708179540933, 343.9997631515763, 329.2618028735542, 318.42242813479385, 303.2694137349315, 291.2028952695684, 271.7775231325775, 260.5670824435151, 243.40992016226286, 235.17249089992427, 230.4261279126247, 211.36162654392416, 196.54805044887638, 182.2394235346336, 170.5839898560694, 157.61552678028633, 148.14266772270574, 137.59090549666197, 129.5461503228759, 109.19458327500571, 103.18960399458533, 95.1002375811387, 89.30275942991445, 75.69790258690051, 78.54946473034977, 75.61911134098311, 77.77896338983136, 79.06175323881548, 82.27235862458602, 80.58815178126544, 79.68953950362281, 81.50607911448898, 77.48685063599483]","dist_present",56,13,"yes","yes",1680,NA,NA,NA,NA,"R","NR","lp","Left",NA,"Left",NA,NA,NA,"practice",0,"NR","in"
"17",1349.57179999945,21487.3098000016,21487.3098000016,5,5,"n",2,"['7', '4', 'space']","n","#000000","no",491132.7899,1,"neutral","psycho","psycho","psycho",0,"uniform",0,0,0,0,NA,0,0,NA,0,0,0,0,16,16,NA,NA,NA,NA,0,0,0,NA,16,0,16,73.2296414732588,"Thu Nov 25 11:40:18 2021","The main experiment item","yes","red","no","7","circle",NA,"pinging_target_expectations 4.0.osexp","C:\Users\etp-cp-ping\Desktop\LocalPC-EXP",75,"no","mono","no",18,"no","white","no","yes",1050,NA,100,"psycho",16,0,16,"C:/Users/etp-cp-ping/Desktop/LocalPC-EXP/subject-21.csv","psycho",8,17,17,"Lentiform Loewenfeld","3.3.8","['vert', 'hori', 'vert', 'hori', 'vert', 'hori', 'vert', 'hori']","yes",109,"circles","yes",0,NA,2,"legacy",NA,1024,2,48000,-16,"experiment",21,"odd","green","no",6,"diamond",438823.1605,438850.1258,438850.1661,NA,444199.177999999,NA,NA,133404.7142,1359.8422,NA,133404.7385,496134.5262,499384.2471,NA,NA,NA,NA,1359.92229999965,444512.5839,NA,NA,496134.540699999,444863.6251,496134.4777,"New experiment",19,"[0]","dist_present",56,78,"yes","yes",1680,NA,NA,NA,NA,"NR","NR","lp",NA,NA,NA,NA,NA,NA,"practice",0,"R","in"
"18",1817.27229999978,23304.5821000013,23304.5821000013,6,6,"n",2,"['7', '4', 'space']","n","#000000","no",500079.9451,1,"neutral","psycho","psycho","psycho",0,"uniform",1,0,0,0,NA,0,0,NA,0,0,0,0,17,17,NA,NA,NA,NA,0,0,0,NA,17,0,17,73.2296414732588,"Thu Nov 25 11:40:18 2021","The main experiment item","yes","red","no","7","diamond",NA,"pinging_target_expectations 4.0.osexp","C:\Users\etp-cp-ping\Desktop\LocalPC-EXP",75,"no","mono","no",18,"no","white","no","yes",1050,NA,100,"psycho",17,0,17,"C:/Users/etp-cp-ping/Desktop/LocalPC-EXP/subject-21.csv","psycho",9,18,18,"Lentiform Loewenfeld","3.3.8","['vert', 'hori', 'hori', 'vert', 'hori', 'hori', 'vert', 'vert']","no",209,"None","yes",0,NA,2,"legacy",NA,1024,2,48000,-16,"experiment",21,"odd","green","no",6,"circle",438823.1605,438850.1258,438850.1661,NA,444199.177999999,NA,NA,133404.7142,1359.8422,NA,133404.7385,499414.5942,503176.2857,NA,NA,NA,NA,1359.92229999965,444512.5839,NA,NA,499414.6095,444863.6251,499414.541,"New experiment",19,"[0]","dist_present",56,78,"yes","yes",1680,NA,NA,NA,NA,"R","R","lp",NA,NA,NA,NA,NA,NA,"practice",6,"NR","in"
"19",883.834399999585,24188.4165000009,24188.4165000009,7,7,"n",2,"['7', '4', 'space']","n","#000000","no",503851.045299999,1,"neutral","psycho","psycho","psycho",0,"uniform",1,0,0,0,NA,0,0,NA,0,0,0,0,18,18,NA,NA,NA,NA,0,0,0,NA,18,0,18,73.2296414732588,"Thu Nov 25 11:40:18 2021","The main experiment item","yes","green","no","3","circle",NA,"pinging_target_expectations 4.0.osexp","C:\Users\etp-cp-ping\Desktop\LocalPC-EXP",75,"no","mono","no",18,"no","white","no","yes",1050,NA,100,"psycho",18,0,18,"C:/Users/etp-cp-ping/Desktop/LocalPC-EXP/subject-21.csv","psycho",10,19,19,"Lentiform Loewenfeld","3.3.8","['vert', 'vert', 'hori', 'hori', 'hori', 'hori', 'vert', 'vert']","yes",109,"diamond","yes",0,NA,2,"legacy",NA,1024,2,48000,-16,"experiment",21,"odd","red","no",5,"diamond",438823.1605,438850.1258,438850.1661,NA,444199.177999999,NA,NA,133404.7142,1359.8422,NA,133404.7385,503206.5049,506088.231,NA,NA,NA,NA,1359.92229999965,444512.5839,NA,NA,503206.5218,444863.6251,503206.4559,"New experiment",19,"[0, 74.06466139383886, 78.66549275875133, 82.53395748529412, 94.36491772769187, 102.03572935946563, 113.454023891222, 117.84076956918176, 122.5068976354469, 132.8005902748346, 141.01280116632685, 145.9548461820437, 152.84723149850674, 166.16931657939045, 174.74427351970903, 180.58629241664443, 187.64575316708294, 199.041389934925, 210.26233614225825, 219.22869494771246, 229.6459095795565, 245.8373196732778, 255.05043325471584, 269.06327140387526, 284.10709214936975, 299.9176438471419, 307.82017005434506, 326.82672401708373, 340.7188626553294, 354.32208288562884, 367.5228264196031, 379.92383574126507, 390.7279628177832, 408.83231340714815, 414.28859479869107, 434.07717262255727, 441.9711743016444, 454.0214556197609, 468.5222226664654, 484.12048059995175, 494.50272157296234, 506.5134148700896, 521.6939824393963, 530.3724435935019, 539.5462886560709, 557.3886671892761, 578.9872081169742, 593.285679829395, 609.3349165222392]","dist_present",56,64,"yes","no",1680,NA,NA,NA,NA,"NR","NR","lp",NA,NA,NA,NA,NA,NA,"practice",6,"R","in"
"20",875.467199999548,25063.8837000005,25063.8837000005,8,8,"n",2,"['7', '4', 'space']","n","#000000","no",503851.045299999,1,"neutral","psycho","psycho","psycho",0,"uniform",1,0,0,0,NA,0,0,NA,0,0,0,0,19,19,NA,NA,NA,NA,0,0,0,NA,19,0,19,73.2296414732588,"Thu Nov 25 11:40:18 2021","The main experiment item","yes","green","no","None","circle",NA,"pinging_target_expectations 4.0.osexp","C:\Users\etp-cp-ping\Desktop\LocalPC-EXP",75,"no","mono","no",18,"no","white","no","yes",1050,NA,100,"psycho",19,0,19,"C:/Users/etp-cp-ping/Desktop/LocalPC-EXP/subject-21.csv","psycho",10,20,20,"Lentiform Loewenfeld","3.3.8","['vert', 'hori', 'hori', 'hori', 'vert', 'hori', 'vert', 'vert']","yes",109,"diamond","yes",0,NA,2,"legacy",NA,1024,2,48000,-16,"experiment",21,"odd","red","no",2,"diamond",438823.1605,438850.1258,438850.1661,NA,444199.177999999,NA,NA,133404.7142,1359.8422,NA,133404.7385,506118.6928,509000.1806,NA,NA,NA,NA,1359.92229999965,444512.5839,NA,NA,506118.707399999,444863.6251,506118.6444,"New experiment",19,"[0, 73.58674734465589, 74.85110686050231, 76.52896303111316, 75.88389939733443, 76.78159728503452, 76.68143084174714, 76.58332934136781, 76.60297982020424, 76.23078246236567, 76.09307693491223, 75.50496672405067, 74.93713210626078, 74.58771932118219]","dist_absent",56,39,"yes","yes",1680,NA,NA,NA,NA,"NR","NR","lp",NA,"Left",NA,"Left",NA,NA,"practice",5,"NR","in"
"21",1097.78969999932,26161.6733999998,26161.6733999998,9,9,"n",2,"['7', '4', 'space']","n","#000000","no",509587.130599999,1,"neutral","psycho","psycho","psycho",0,"uniform",1,0,0,0,NA,0,0,NA,0,0,0,0,20,20,NA,NA,NA,NA,0,0,0,NA,20,0,20,73.2296414732588,"Thu Nov 25 11:40:18 2021","The main experiment item","yes","green","no","0","diamond",NA,"pinging_target_expectations 4.0.osexp","C:\Users\etp-cp-ping\Desktop\LocalPC-EXP",75,"no","mono","no",18,"no","white","no","yes",1050,NA,100,"psycho",20,0,20,"C:/Users/etp-cp-ping/Desktop/LocalPC-EXP/subject-21.csv","psycho",11,21,21,"Lentiform Loewenfeld","3.3.8","['vert', 'hori', 'vert', 'hori', 'hori', 'vert', 'hori', 'vert']","yes",109,"circles","yes",0,NA,2,"legacy",NA,1024,2,48000,-16,"experiment",21,"odd","red","no",7,"circle",438823.1605,438850.1258,438850.1661,NA,444199.177999999,NA,NA,133404.7142,1359.8422,NA,133404.7385,509030.7,511928.3097,NA,NA,NA,NA,1359.92229999965,444512.5839,NA,NA,509030.7147,444863.6251,509030.6513,"New experiment",19,"[0, 82.44105444798964, 90.89777635933075, 98.94264184118222, 109.79637586383613, 117.69564822181047, 123.37736705793988, 139.64073162305814, 150.3628381148008, 157.81839894606452, 166.3520108935298, 173.9055369131274, 190.61690383678217, 197.96988501055924, 210.43014334227766, 230.58189324443646, 241.92300355873365, 260.1249203263789, 276.1252857803251, 294.7368110254262, 304.87011086210316, 325.4338553365635, 331.87721079404406, 344.9795379709534, 362.90899068165743, 379.570557138828, 395.3131412266301, 405.51976545937043, 417.8488451843271, 436.8365690748153, 449.90815180820823, 459.7189267411165, 467.35526068499723, 486.26860042599304, 499.8378932697481, 506.08917198454265, 519.9717525850119, 531.9205085737972, 549.9602380291566, 558.8136883685883, 568.985172526647, 581.2295793098858, 589.2746719538777, 599.7400603961252, 602.9117730352043]","dist_present",56,81,"yes","no",1680,NA,NA,NA,NA,"NR","NR","lp",NA,"Right",NA,NA,NA,NA,"practice",2,"NR","in"
"22",1011.09679999988,27172.7701999997,27172.7701999997,10,10,"n",2,"['7', '4', 'space']","n","#000000","no",509587.130599999,1,"neutral","psycho","psycho","psycho",0,"uniform",1,0,0,0,NA,0,0,NA,0,0,0,0,21,21,NA,NA,NA,NA,0,0,0,NA,21,0,21,73.2296414732588,"Thu Nov 25 11:40:18 2021","The main experiment item","yes","green","no","6","circle",NA,"pinging_target_expectations 4.0.osexp","C:\Users\etp-cp-ping\Desktop\LocalPC-EXP",75,"no","mono","no",18,"no","white","no","yes",1050,NA,100,"psycho",21,0,21,"C:/Users/etp-cp-ping/Desktop/LocalPC-EXP/subject-21.csv","psycho",11,22,22,"Lentiform Loewenfeld","3.3.8","['hori', 'hori', 'vert', 'vert', 'hori', 'vert', 'vert', 'hori']","yes",109,"circles","yes",0,NA,2,"legacy",NA,1024,2,48000,-16,"experiment",21,"odd","red","no",4,"diamond",438823.1605,438850.1258,438850.1661,NA,444199.177999999,NA,NA,133404.7142,1359.8422,NA,133404.7385,511958.5851,514712.224599999,NA,NA,NA,NA,1359.92229999965,444512.5839,NA,NA,511958.5993,444863.6251,511958.5365,"New experiment",19,"[0]","dist_present",56,57,"yes","yes",1680,NA,NA,NA,NA,"NR","NR","lp","Right",NA,"Right",NA,NA,NA,"practice",7,"NR","in"
"23",1318.41780000011,28491.1879999998,28491.1879999998,11,11,"n",2,"['7', '4', 'space']","n","#000000","no",517871.8671,1,"neutral","psycho","psycho","psycho",0,"uniform",1,0,0,0,NA,0,0,NA,0,0,0,0,22,22,NA,NA,NA,NA,0,0,0,NA,22,0,22,73.2296414732588,"Thu Nov 25 11:40:18 2021","The main experiment item","yes","red","no","5","circle",NA,"pinging_target_expectations 4.0.osexp","C:\Users\etp-cp-ping\Desktop\LocalPC-EXP",75,"no","mono","no",18,"no","white","no","yes",1050,NA,100,"psycho",22,0,22,"C:/Users/etp-cp-ping/Desktop/LocalPC-EXP/subject-21.csv","psycho",13,23,23,"Lentiform Loewenfeld","3.3.8","['vert', 'hori', 'hori', 'hori', 'vert', 'vert', 'hori', 'vert']","no",209,"None","yes",0,NA,2,"legacy",NA,1024,2,48000,-16,"experiment",21,"odd","green","no",1,"diamond",438823.1605,438850.1258,438850.1661,NA,444199.177999999,NA,NA,133404.7142,1359.8422,NA,133404.7385,514742.4637,518152.2213,NA,NA,NA,NA,1359.92229999965,444512.5839,NA,NA,514742.4809,444863.6251,514742.4131,"New experiment",19,"[0, 80.30100127436026, 92.41171737292676, 98.6456484593321, 112.43208494725663, 120.89122036212837, 133.07792454597848, 145.8769804000778, 156.32895162356462, 167.83855519621454, 175.9363321453268, 192.7191814922411, 206.21745529219453, 219.0287943711353, 232.03202890757473, 247.4141370652206, 264.6176906585668, 278.06885564371294, 296.861913749409, 311.02661975825055, 330.14476081819583, 343.7535793386096, 364.78524856858286, 383.1792549936905, 400.9841499860552, 421.4001325682235, 438.6612824216437, 459.40150472803964, 472.49948444705734, 489.9270723691792, 504.41416328263443, 519.470378083347, 539.4582383175486, 562.9652061321644, 587.2324764781531, 638.9682840562479, 674.187519000736, 78.93958908929368, 103.18823160893263, 125.0923497240075, 151.67836338914807, 189.2444303511891, 226.70715800504172, 259.5012331000932, 296.52564845292943, 333.3101284627285, 371.3077444011192, 440.754025615413, 489.472107792305, 523.4031195099013, 560.1008682829976, 597.6547576451961, 614.014364736314, 660.4435382744962]","dist_present",56,26,"yes","no",1680,NA,NA,NA,NA,"NR","NR","lp",NA,NA,NA,NA,NA,NA,"practice",4,"NR","in"
"24",795.331500000437,29286.5195000002,29286.5195000002,11,11,"n",2,"['7', '4', 'space']","n","#000000","no",517871.8671,1,"neutral","psycho","psycho","psycho",0,"uniform",0,0,0,0,NA,0,0,NA,0,0,0,0,23,23,NA,NA,NA,NA,0,0,0,NA,23,0,23,73.2296414732588,"Thu Nov 25 11:40:18 2021","The main experiment item","yes","red","no","0","circle",NA,"pinging_target_expectations 4.0.osexp","C:\Users\etp-cp-ping\Desktop\LocalPC-EXP",75,"no","mono","no",18,"no","white","no","yes",1050,NA,100,"psycho",23,0,23,"C:/Users/etp-cp-ping/Desktop/LocalPC-EXP/subject-21.csv","psycho",13,24,24,"Lentiform Loewenfeld","3.3.8","['vert', 'hori', 'hori', 'vert', 'hori', 'vert', 'vert', 'hori']","yes",109,"circles","yes",0,NA,2,"legacy",NA,1024,2,48000,-16,"experiment",21,"odd","green","no",1,"diamond",438823.1605,438850.1258,438850.1661,NA,444199.177999999,NA,NA,133404.7142,1359.8422,NA,133404.7385,518182.6122,521032.2977,NA,NA,NA,NA,1359.92229999965,444512.5839,NA,NA,518182.6266,444863.6251,518182.5637,"New experiment",19,"[0]","dist_present",56,21,"yes","yes",1680,NA,NA,NA,NA,"R","NR","lp",NA,"Left",NA,NA,NA,NA,"practice",1,"NR","in"
"25",2000.14849999931,31286.6679999995,31286.6679999995,11,11,"n",2,"['7', '4', 'space']","n","#000000","no",517871.8671,1,"neutral","psycho","psycho","psycho",0,"uniform",0,0,0,0,NA,0,0,NA,0,0,0,0,24,24,NA,NA,NA,NA,0,0,0,NA,24,0,24,73.2296414732588,"Thu Nov 25 11:40:18 2021","The main experiment item","yes","red","no","None","circle",NA,"pinging_target_expectations 4.0.osexp","C:\Users\etp-cp-ping\Desktop\LocalPC-EXP",75,"no","mono","no",18,"no","white","no","yes",1050,NA,100,"psycho",24,0,24,"C:/Users/etp-cp-ping/Desktop/LocalPC-EXP/subject-21.csv","psycho",13,25,25,"Lentiform Loewenfeld","3.3.8","['vert', 'hori', 'hori', 'hori', 'vert', 'vert', 'vert', 'hori']","yes",109,"diamond","yes",0,NA,2,"legacy",NA,1024,2,48000,-16,"experiment",21,"odd","green","no",0,"diamond",438823.1605,438850.1258,438850.1661,NA,444199.177999999,NA,NA,133404.7142,1359.8422,NA,133404.7385,521064.6862,524924.0162,NA,NA,NA,NA,1359.92229999965,444512.5839,NA,NA,521064.7008,444863.6251,521064.6378,"New experiment",19,"[0]","dist_absent",56,19,"yes","yes",1680,NA,NA,NA,NA,"NR","NR","lp",NA,NA,NA,NA,NA,NA,"practice",1,"R","in"
"26",1356.97149999952,32643.6394999991,32643.6394999991,11,11,"n",2,"['7', '4', 'space']","n","#000000","no",525513.4595,1,"neutral","psycho","psycho","psycho",0,"uniform",0,0,0,0,NA,0,0,NA,0,0,0,0,25,25,NA,NA,NA,NA,0,0,0,NA,25,0,25,73.2296414732588,"Thu Nov 25 11:40:18 2021","The main experiment item","yes","green","no","1","diamond",NA,"pinging_target_expectations 4.0.osexp","C:\Users\etp-cp-ping\Desktop\LocalPC-EXP",75,"no","mono","no",18,"no","white","no","yes",1050,NA,100,"psycho",25,0,25,"C:/Users/etp-cp-ping/Desktop/LocalPC-EXP/subject-21.csv","psycho",14,26,26,"Lentiform Loewenfeld","3.3.8","['hori', 'hori', 'vert', 'hori', 'hori', 'vert', 'vert', 'vert']","no",209,"None","yes",0,NA,2,"legacy",NA,1024,2,48000,-16,"experiment",21,"odd","red","no",0,"circle",438823.1605,438850.1258,438850.1661,NA,444199.177999999,NA,NA,133404.7142,1359.8422,NA,133404.7385,524954.1481,528216.2324,NA,NA,NA,NA,1359.92229999965,444512.5839,NA,NA,524954.1629,444863.6251,524954.0965,"New experiment",19,"[0, 228.46909295471033, 234.29481287126194, 246.65787947940785, 255.83785873271032, 263.6104329106802, 272.2574548047815, 281.8212717641292, 297.0559510417476, 310.66801212046823, 320.585774262784, 329.8461971982595, 338.9112541988778, 353.07093953584837, 366.07116628018986, 374.5430384923824, 388.41651013658117, 399.93498310101404, 408.3343486567954, 420.55988052874505, 432.93401739240596, 444.7071249869524, 453.6123670234337, 460.57253309304804, 478.2285806919383, 490.2786112935122, 499.68918844256325, 523.1809298758344, 528.2271183654435, 538.6318315881451, 546.8578878751326, 562.2967530722769]","dist_present",56,12,"yes","no",1680,NA,NA,NA,NA,"R","NR","lp","Left",NA,NA,NA,NA,NA,"practice",0,"NR","in"
"27",1239.60509999958,33883.2445999986,33883.2445999986,12,12,"n",2,"['7', '4', 'space']","n","#000000","no",529060.0155,1,"neutral","psycho","psycho","psycho",0,"uniform",1,0,0,0,NA,0,0,NA,0,0,0,0,26,26,NA,NA,NA,NA,0,0,0,NA,26,0,26,73.2296414732588,"Thu Nov 25 11:40:18 2021","The main experiment item","yes","red","no","4","diamond",NA,"pinging_target_expectations 4.0.osexp","C:\Users\etp-cp-ping\Desktop\LocalPC-EXP",75,"no","mono","no",18,"no","white","no","yes",1050,NA,100,"psycho",26,0,26,"C:/Users/etp-cp-ping/Desktop/LocalPC-EXP/subject-21.csv","psycho",15,27,27,"Lentiform Loewenfeld","3.3.8","['hori', 'hori', 'vert', 'hori', 'vert', 'vert', 'vert', 'hori']","yes",109,"circles","yes",0,NA,2,"legacy",NA,1024,2,48000,-16,"experiment",21,"odd","green","no",1,"circle",438823.1605,438850.1258,438850.1661,NA,444199.177999999,NA,NA,133404.7142,1359.8422,NA,133404.7385,528246.683899999,531400.2225,NA,NA,NA,NA,1359.92229999965,444512.5839,NA,NA,528246.6985,444863.6251,528246.6348,"New experiment",19,"[0, 75.26060102342291, 81.75703041014253, 94.368719135993, 103.77307025362614, 111.27000888797612, 123.37477042349899, 132.89272275681256, 143.41552411993044, 151.22883486017227, 163.3205738233416, 166.92614729245534, 178.60707020536464, 188.62584716121464, 201.94303426192943, 212.52411627860025, 222.35873889876507, 234.62150370330508, 247.29059772195228, 261.9473494647394, 268.5506684017453, 285.2512632205955, 296.5636214003449, 313.4702653923604, 325.73246445271417, 347.294818921907, 359.19662096095254, 367.93775326585, 384.5105965984365, 399.39280430897827, 415.9796764427068, 429.06491397604816, 440.36828613014353, 450.7635629058275, 464.9809687464497, 477.2029325997862, 486.78445110078883, 502.4391085959375, 513.4544701243005, 530.9521600067404, 531.3466639125337, 556.5106836008769, 587.4727109623823, 589.6121190227001, 604.2115013990157, 623.096878747742]","dist_present",56,25,"yes","no",1680,NA,NA,NA,NA,"NR","NR","lp",NA,"Left",NA,NA,NA,NA,"practice",0,"R","in"
"28",892.285099999746,34775.5296999984,34775.5296999984,13,13,"n",2,"['7', '4', 'space']","n","#000000","no",529060.0155,1,"neutral","psycho","psycho","psycho",0,"uniform",1,0,0,0,NA,0,0,NA,0,0,0,0,27,27,NA,NA,NA,NA,0,0,0,NA,27,0,27,73.2296414732588,"Thu Nov 25 11:40:18 2021","The main experiment item","yes","red","no","2","circle",NA,"pinging_target_expectations 4.0.osexp","C:\Users\etp-cp-ping\Desktop\LocalPC-EXP",75,"no","mono","no",18,"no","white","no","yes",1050,NA,100,"psycho",27,0,27,"C:/Users/etp-cp-ping/Desktop/LocalPC-EXP/subject-21.csv","psycho",15,28,28,"Lentiform Loewenfeld","3.3.8","['hori', 'hori', 'hori', 'vert', 'vert', 'vert', 'vert', 'hori']","yes",109,"diamond","yes",0,NA,2,"legacy",NA,1024,2,48000,-16,"experiment",21,"odd","green","no",5,"diamond",438823.1605,438850.1258,438850.1661,NA,444199.177999999,NA,NA,133404.7142,1359.8422,NA,133404.7385,531430.6907,534296.2647,NA,NA,NA,NA,1359.92229999965,444512.5839,NA,NA,531430.7053,444863.6251,531430.6407,"New experiment",19,"[0]","dist_present",56,63,"yes","yes",1680,NA,NA,NA,NA,"NR","NR","lp",NA,NA,NA,NA,NA,NA,"practice",1,"NR","in"
"29",1204.05260000005,35979.5822999984,35979.5822999984,13,13,"n",2,"['7', '4', 'space']","n","#000000","no",529060.0155,1,"neutral","psycho","psycho","psycho",0,"uniform",0,0,0,0,NA,0,0,NA,0,0,0,0,28,28,NA,NA,NA,NA,0,0,0,NA,28,0,28,73.2296414732588,"Thu Nov 25 11:40:18 2021","The main experiment item","yes","green","no","None","circle",NA,"pinging_target_expectations 4.0.osexp","C:\Users\etp-cp-ping\Desktop\LocalPC-EXP",75,"no","mono","no",18,"no","white","no","yes",1050,NA,100,"psycho",28,0,28,"C:/Users/etp-cp-ping/Desktop/LocalPC-EXP/subject-21.csv","psycho",15,29,29,"Lentiform Loewenfeld","3.3.8","['vert', 'hori', 'vert', 'hori', 'hori', 'hori', 'vert', 'vert']","yes",109,"circles","yes",0,NA,2,"legacy",NA,1024,2,48000,-16,"experiment",21,"odd","red","no",3,"diamond",438823.1605,438850.1258,438850.1661,NA,444199.177999999,NA,NA,133404.7142,1359.8422,NA,133404.7385,534326.7873,537560.2702,NA,NA,NA,NA,1359.92229999965,444512.5839,NA,NA,534326.8017,444863.6251,534326.739,"New experiment",19,"[0]","dist_absent",56,49,"yes","yes",1680,NA,NA,NA,NA,"NR","NR","lp",NA,"Left",NA,NA,NA,NA,"practice",5,"NR","in"
"30",1275.19430000032,37254.7765999988,37254.7765999988,13,13,"n",2,"['7', '4', 'space']","n","#000000","no",538187.6933,1,"neutral","psycho","psycho","psycho",0,"uniform",0,0,0,0,NA,0,0,NA,0,0,0,0,29,29,NA,NA,NA,NA,0,0,0,NA,29,0,29,73.2296414732588,"Thu Nov 25 11:40:18 2021","The main experiment item","yes","red","no","7","circle",NA,"pinging_target_expectations 4.0.osexp","C:\Users\etp-cp-ping\Desktop\LocalPC-EXP",75,"no","mono","no",18,"no","white","no","yes",1050,NA,100,"psycho",29,0,29,"C:/Users/etp-cp-ping/Desktop/LocalPC-EXP/subject-21.csv","psycho",16,30,30,"Lentiform Loewenfeld","3.3.8","['hori', 'vert', 'vert', 'hori', 'vert', 'vert', 'hori', 'hori']","yes",109,"circles","yes",0,NA,2,"legacy",NA,1024,2,48000,-16,"experiment",21,"odd","green","no",4,"diamond",438823.1605,438850.1258,438850.1661,NA,444199.177999999,NA,NA,133404.7142,1359.8422,NA,133404.7385,537590.8347,540776.289,NA,NA,NA,NA,1359.92229999965,444512.5839,NA,NA,537590.849199999,444863.6251,537590.785,"New experiment",19,"[0]","dist_present",56,58,"yes","yes",1680,NA,NA,NA,NA,"NR","NR","lp","Right",NA,NA,NA,NA,NA,"practice",3,"NR","in"
"31",1347.15690000029,38601.9334999991,38601.9334999991,14,14,"n",2,"['7', '4', 'space']","n","#000000","no",538187.6933,1,"neutral","psycho","psycho","psycho",0,"uniform",1,0,0,0,NA,0,0,NA,0,0,0,0,30,30,NA,NA,NA,NA,0,0,0,NA,30,0,30,73.2296414732588,"Thu Nov 25 11:40:18 2021","The main experiment item","yes","green","no","None","diamond",NA,"pinging_target_expectations 4.0.osexp","C:\Users\etp-cp-ping\Desktop\LocalPC-EXP",75,"no","mono","no",18,"no","white","no","yes",1050,NA,100,"psycho",30,0,30,"C:/Users/etp-cp-ping/Desktop/LocalPC-EXP/subject-21.csv","psycho",16,31,31,"Lentiform Loewenfeld","3.3.8","['vert', 'vert', 'hori', 'hori', 'vert', 'hori', 'hori', 'vert']","yes",109,"circles","yes",0,NA,2,"legacy",NA,1024,2,48000,-16,"experiment",21,"odd","red","no",3,"circle",438823.1605,438850.1258,438850.1661,NA,444199.177999999,NA,NA,133404.7142,1359.8422,NA,133404.7385,540806.9277,544168.231399999,NA,NA,NA,NA,1359.92229999965,444512.5839,NA,NA,540806.9419,444863.6251,540806.8798,"New experiment",19,"[0, 132.83783637927084, 127.76798038446167, 119.9208072020865, 116.67297694755622, 114.66879900110477, 108.55048816769968, 102.07657023728531, 101.73145695160491, 97.36115639920969, 92.60291143664823, 88.95732611281221, 83.23461229317101, 76.52975192490986, 73.57023114774827]","dist_absent",56,49,"yes","yes",1680,NA,NA,NA,NA,"NR","NR","lp",NA,"Left",NA,NA,NA,NA,"practice",4,"NR","in"
"32",1260.86210000003,39862.7955999991,39862.7955999991,15,15,"n",2,"['7', '4', 'space']","n","#000000","no",547254.1938,1,"neutral","psycho","psycho","psycho",0,"uniform",1,0,0,0,NA,0,0,NA,0,0,0,0,31,31,NA,NA,NA,NA,0,0,0,NA,31,0,31,73.2296414732588,"Thu Nov 25 11:40:18 2021","The main experiment item","yes","green","no","6","diamond",NA,"pinging_target_expectations 4.0.osexp","C:\Users\etp-cp-ping\Desktop\LocalPC-EXP",75,"no","mono","no",18,"no","white","no","yes",1050,NA,100,"psycho",31,0,31,"C:/Users/etp-cp-ping/Desktop/LocalPC-EXP/subject-21.csv","psycho",17,32,32,"Lentiform Loewenfeld","3.3.8","['hori', 'vert', 'hori', 'vert', 'hori', 'vert', 'vert', 'hori']","no",209,"None","yes",0,NA,2,"legacy",NA,1024,2,48000,-16,"experiment",21,"odd","red","no",5,"circle",438823.1605,438850.1258,438850.1661,NA,444199.177999999,NA,NA,133404.7142,1359.8422,NA,133404.7385,544198.8248,547256.2763,NA,NA,NA,NA,1359.92229999965,444512.5839,NA,NA,544198.8389,444863.6251,544198.775599999,"New experiment",19,"[0, 73.61739084194842, 73.8761297634657, 76.6264622490042, 76.70103585589919, 74.7609786631021, 87.41771513226543, 117.46150705507392, 154.14345560946566, 189.94786034182707, 255.77573722678906, 306.6727657200347, 354.6059357690132, 411.3924422857383, 473.44347977607697, 532.3765797290896, 590.9298808773948, 669.3488931960328, 711.1148536303486]","dist_present",56,67,"yes","no",1680,NA,NA,NA,NA,"NR","NR","lp",NA,NA,NA,NA,NA,NA,"practice",3,"NR","in"
"33",1879.58579999942,41742.3813999985,41742.3813999985,16,16,"n",2,"['7', '4', 'space']","n","#000000","no",547254.1938,1,"neutral","psycho","psycho","psycho",0,"uniform",1,0,0,0,NA,0,0,NA,0,0,0,0,32,32,NA,NA,NA,NA,0,0,0,NA,32,0,32,73.2296414732588,"Thu Nov 25 11:40:18 2021","The main experiment item","yes","red","no","None","diamond",NA,"pinging_target_expectations 4.0.osexp","C:\Users\etp-cp-ping\Desktop\LocalPC-EXP",75,"no","mono","no",18,"no","white","no","yes",1050,NA,100,"psycho",32,0,32,"C:/Users/etp-cp-ping/Desktop/LocalPC-EXP/subject-21.csv","psycho",17,33,33,"Lentiform Loewenfeld","3.3.8","['vert', 'vert', 'vert', 'hori', 'vert', 'hori', 'hori', 'hori']","no",209,"None","yes",0,NA,2,"legacy",NA,1024,2,48000,-16,"experiment",21,"odd","green","no",4,"circle",438823.1605,438850.1258,438850.1661,NA,444199.177999999,NA,NA,133404.7142,1359.8422,NA,133404.7385,547286.642099999,550952.2618,NA,NA,NA,NA,1359.92229999965,444512.5839,NA,NA,547286.6567,444863.6251,547286.5925,"New experiment",19,"[0]","dist_absent",56,59,"yes","yes",1680,NA,NA,NA,NA,"NR","NR","lp",NA,NA,NA,NA,NA,NA,"practice",5,"NR","in"
"34",1442.20459999994,43184.5859999984,43184.5859999984,17,17,"n",2,"['7', '4', 'space']","n","#000000","no",552055.4842,1,"neutral","psycho","psycho","psycho",0,"uniform",1,0,0,0,NA,0,0,NA,0,0,0,0,33,33,NA,NA,NA,NA,0,0,0,NA,33,0,33,73.2296414732588,"Thu Nov 25 11:40:18 2021","The main experiment item","yes","green","no","6","diamond",NA,"pinging_target_expectations 4.0.osexp","C:\Users\etp-cp-ping\Desktop\LocalPC-EXP",75,"no","mono","no",18,"no","white","no","yes",1050,NA,100,"psycho",33,0,33,"C:/Users/etp-cp-ping/Desktop/LocalPC-EXP/subject-21.csv","psycho",18,34,34,"Lentiform Loewenfeld","3.3.8","['vert', 'vert', 'hori', 'hori', 'vert', 'hori', 'hori', 'vert']","no",209,"None","yes",0,NA,2,"legacy",NA,1024,2,48000,-16,"experiment",21,"odd","red","no",5,"circle",438823.1605,438850.1258,438850.1661,NA,444199.177999999,NA,NA,133404.7142,1359.8422,NA,133404.7385,550982.8318,554328.2248,NA,NA,NA,NA,1359.92229999965,444512.5839,NA,NA,550982.845999999,444863.6251,550982.783,"New experiment",19,"[0, 77.85250907289957, 89.87150944792998, 96.66036692049289, 109.86998979795949, 120.92909703123483, 130.74730256837805, 140.31324509128663, 160.1150875456975, 167.57234882964823, 179.687963613534, 194.37879497903364, 204.56048796702024, 225.94281491198774, 237.03504829685915, 249.91012688275617, 264.78065963140955, 281.60235788485284, 298.65623383056976, 314.90470727362305, 327.3029311065495, 347.4830668929695, 360.5812845172935, 377.01019600677455, 386.5007668092546, 401.12694884152904, 415.8334855416938, 429.0651528704185, 437.5392394177631, 453.93240244420787, 461.63480409153834, 477.816009600727, 487.6237942379677, 499.45212825452, 509.7289440107435, 532.8501562664726, 537.9072875505592]","dist_present",56,67,"yes","no",1680,NA,NA,NA,NA,"NR","NR","lp",NA,NA,NA,NA,NA,NA,"practice",4,"NR","in"
"35",1143.68560000008,44328.2715999985,44328.2715999985,17,17,"n",2,"['7', '4', 'space']","n","#000000","no",552055.4842,1,"neutral","psycho","psycho","psycho",0,"uniform",0,0,0,0,NA,0,0,NA,0,0,0,0,34,34,NA,NA,NA,NA,0,0,0,NA,34,0,34,73.2296414732588,"Thu Nov 25 11:40:18 2021","The main experiment item","yes","green","no","4","circle",NA,"pinging_target_expectations 4.0.osexp","C:\Users\etp-cp-ping\Desktop\LocalPC-EXP",75,"no","mono","no",18,"no","white","no","yes",1050,NA,100,"psycho",34,0,34,"C:/Users/etp-cp-ping/Desktop/LocalPC-EXP/subject-21.csv","psycho",18,35,35,"Lentiform Loewenfeld","3.3.8","['hori', 'hori', 'vert', 'vert', 'vert', 'vert', 'hori', 'hori']","yes",109,"diamond","yes",0,NA,2,"legacy",NA,1024,2,48000,-16,"experiment",21,"odd","red","no",6,"diamond",438823.1605,438850.1258,438850.1661,NA,444199.177999999,NA,NA,133404.7142,1359.8422,NA,133404.7385,554358.7381,557656.2631,NA,NA,NA,NA,1359.92229999965,444512.5839,NA,NA,554358.752699999,444863.6251,554358.6881,"New experiment",19,"[0]","dist_present",56,75,"yes","yes",1680,NA,NA,NA,NA,"NR","NR","lp",NA,"Right",NA,"Right",NA,NA,"practice",5,"NR","in"
"36",1094.00910000014,45422.2806999987,45422.2806999987,18,18,"n",2,"['7', '4', 'space']","n","#000000","no",558176.1132,1,"neutral","psycho","psycho","psycho",0,"uniform",1,0,0,0,NA,0,0,NA,0,0,0,0,35,35,NA,NA,NA,NA,0,0,0,NA,35,0,35,73.2296414732588,"Thu Nov 25 11:40:18 2021","The main experiment item","yes","red","no","1","diamond",NA,"pinging_target_expectations 4.0.osexp","C:\Users\etp-cp-ping\Desktop\LocalPC-EXP",75,"no","mono","no",18,"no","white","no","yes",1050,NA,100,"psycho",35,0,35,"C:/Users/etp-cp-ping/Desktop/LocalPC-EXP/subject-21.csv","psycho",19,36,36,"Lentiform Loewenfeld","3.3.8","['vert', 'vert', 'vert', 'vert', 'hori', 'hori', 'hori', 'hori']","yes",109,"circles","yes",0,NA,2,"legacy",NA,1024,2,48000,-16,"experiment",21,"odd","green","no",4,"circle",438823.1605,438850.1258,438850.1661,NA,444199.177999999,NA,NA,133404.7142,1359.8422,NA,133404.7385,557686.5671,560568.2793,NA,NA,NA,NA,1359.92229999965,444512.5839,NA,NA,557686.5819,444863.6251,557686.5167,"New experiment",19,"[0]","dist_present",56,52,"yes","yes",1680,NA,NA,NA,NA,"NR","NR","lp","Left",NA,NA,NA,NA,NA,"practice",6,"NR","in"
"37",1434.90349999955,46857.1841999982,46857.1841999982,19,19,"n",2,"['7', '4', 'space']","n","#000000","no",561556.6954,1,"neutral","psycho","psycho","psycho",0,"uniform",1,0,0,0,NA,0,0,NA,0,0,0,0,36,36,NA,NA,NA,NA,0,0,0,NA,36,0,36,73.2296414732588,"Thu Nov 25 11:40:18 2021","The main experiment item","yes","green","no","0","diamond",NA,"pinging_target_expectations 4.0.osexp","C:\Users\etp-cp-ping\Desktop\LocalPC-EXP",75,"no","mono","no",18,"no","white","no","yes",1050,NA,100,"psycho",36,0,36,"C:/Users/etp-cp-ping/Desktop/LocalPC-EXP/subject-21.csv","psycho",20,37,37,"Lentiform Loewenfeld","3.3.8","['vert', 'vert', 'hori', 'hori', 'hori', 'vert', 'vert', 'hori']","yes",109,"diamond","yes",0,NA,2,"legacy",NA,1024,2,48000,-16,"experiment",21,"odd","red","no",7,"circle",438823.1605,438850.1258,438850.1661,NA,444199.177999999,NA,NA,133404.7142,1359.8422,NA,133404.7385,560598.7216,564104.2652,NA,NA,NA,NA,1359.92229999965,444512.5839,NA,NA,560598.7365,444863.6251,560598.6728,"New experiment",19,"[0, 74.79176241144455, 84.12417683939944, 93.22241507210694, 104.78788097867043, 114.28616542444263, 126.62754112894864, 137.08266660271423, 150.20019847384614, 160.66836907673408, 170.92236836020064, 180.43791220564916, 195.13473496545984, 200.21686198042812, 216.93634293212818, 230.65755078128933, 245.10118401442736, 260.23236923668026, 273.8291636392592, 288.5608901078001, 306.4204583252783, 324.0743529353557, 343.164413613225, 357.4948070980208, 375.67303354748026, 396.37630076310177, 415.2560624275264, 428.4043519669004, 446.5525605141672, 460.6541762246843, 479.11146484619996, 497.603529831121, 515.9566588541315, 531.6326053583251, 555.5098505276081, 560.4374692230906, 580.1889205553297, 603.835633074119]","dist_present",56,81,"yes","no",1680,NA,NA,NA,NA,"NR","NR","lp",NA,"Right",NA,NA,NA,NA,"practice",4,"NR","in"
"38",787.675800000201,47644.8599999984,47644.8599999984,20,20,"n",2,"['7', '4', 'space']","n","#000000","no",561556.6954,1,"neutral","psycho","psycho","psycho",0,"uniform",1,0,0,0,NA,0,0,NA,0,0,0,0,37,37,NA,NA,NA,NA,0,0,0,NA,37,0,37,73.2296414732588,"Thu Nov 25 11:40:18 2021","The main experiment item","yes","green","no","None","diamond",NA,"pinging_target_expectations 4.0.osexp","C:\Users\etp-cp-ping\Desktop\LocalPC-EXP",75,"no","mono","no",18,"no","white","no","yes",1050,NA,100,"psycho",37,0,37,"C:/Users/etp-cp-ping/Desktop/LocalPC-EXP/subject-21.csv","psycho",20,38,38,"Lentiform Loewenfeld","3.3.8","['vert', 'hori', 'vert', 'vert', 'hori', 'hori', 'vert', 'hori']","no",209,"None","yes",0,NA,2,"legacy",NA,1024,2,48000,-16,"experiment",21,"odd","red","no",5,"circle",438823.1605,438850.1258,438850.1661,NA,444199.177999999,NA,NA,133404.7142,1359.8422,NA,133404.7385,564134.9734,566808.2393,NA,NA,NA,NA,1359.92229999965,444512.5839,NA,NA,564134.9876,444863.6251,564134.9243,"New experiment",19,"[0]","dist_absent",56,69,"yes","yes",1680,NA,NA,NA,NA,"NR","NR","lp",NA,"Right",NA,NA,NA,NA,"practice",7,"NR","in"
"39",1139.52179999975,48784.3817999982,48784.3817999982,21,21,"n",2,"['7', '4', 'space']","n","#000000","no",561556.6954,1,"neutral","psycho","psycho","psycho",0,"uniform",1,0,0,0,NA,0,0,NA,0,0,0,0,38,38,NA,NA,NA,NA,0,0,0,NA,38,0,38,73.2296414732588,"Thu Nov 25 11:40:18 2021","The main experiment item","yes","red","no","0","diamond",NA,"pinging_target_expectations 4.0.osexp","C:\Users\etp-cp-ping\Desktop\LocalPC-EXP",75,"no","mono","no",18,"no","white","no","yes",1050,NA,100,"psycho",38,0,38,"C:/Users/etp-cp-ping/Desktop/LocalPC-EXP/subject-21.csv","psycho",20,39,39,"Lentiform Loewenfeld","3.3.8","['hori', 'hori', 'vert', 'vert', 'hori', 'vert', 'hori', 'vert']","no",209,"None","yes",0,NA,2,"legacy",NA,1024,2,48000,-16,"experiment",21,"odd","green","no",7,"circle",438823.1605,438850.1258,438850.1661,NA,444199.177999999,NA,NA,133404.7142,1359.8422,NA,133404.7385,566838.5618,569736.2687,NA,NA,NA,NA,1359.92229999965,444512.5839,NA,NA,566838.5765,444863.6251,566838.512,"New experiment",19,"[0]","dist_present",56,81,"yes","yes",1680,NA,NA,NA,NA,"NR","NR","lp",NA,"Right",NA,NA,NA,NA,"practice",5,"NR","in"
"40",1350.17669999972,50134.5584999979,50134.5584999979,22,22,"n",2,"['7', '4', 'space']","n","#000000","no",561556.6954,1,"neutral","psycho","psycho","psycho",0,"uniform",1,0,0,0,NA,0,0,NA,0,0,0,0,39,39,NA,NA,NA,NA,0,0,0,NA,39,0,39,73.2296414732588,"Thu Nov 25 11:40:18 2021","The main experiment item","yes","green","no","3","circle",NA,"pinging_target_expectations 4.0.osexp","C:\Users\etp-cp-ping\Desktop\LocalPC-EXP",75,"no","mono","no",18,"no","white","no","yes",1050,NA,100,"psycho",39,0,39,"C:/Users/etp-cp-ping/Desktop/LocalPC-EXP/subject-21.csv","psycho",20,40,40,"Lentiform Loewenfeld","3.3.8","['hori', 'vert', 'hori', 'hori', 'hori', 'vert', 'vert', 'vert']","no",209,"None","yes",0,NA,2,"legacy",NA,1024,2,48000,-16,"experiment",21,"odd","red","no",2,"diamond",438823.1605,438850.1258,438850.1661,NA,444199.177999999,NA,NA,133404.7142,1359.8422,NA,133404.7385,569768.1884,573112.2191,NA,NA,NA,NA,1359.92229999965,444512.5839,NA,NA,569768.204,444863.6251,569768.140099999,"New experiment",19,"[0]","dist_present",56,34,"yes","yes",1680,NA,NA,NA,NA,"NR","NR","lp",NA,NA,NA,NA,NA,NA,"practice",7,"NR","in"
"41",1067.3343999997,51201.8928999976,51201.8928999976,23,23,"n",2,"['7', '4', 'space']","n","#000000","no",575888.846599999,1,"neutral","psycho","psycho","psycho",0,"uniform",1,0,0,0,NA,0,0,NA,0,0,0,0,40,40,NA,NA,NA,NA,0,0,0,NA,40,0,40,73.2296414732588,"Thu Nov 25 11:40:18 2021","The main experiment item","yes","red","no","2","circle",NA,"pinging_target_expectations 4.0.osexp","C:\Users\etp-cp-ping\Desktop\LocalPC-EXP",75,"no","mono","no",18,"no","white","no","yes",1050,NA,100,"psycho",40,0,40,"C:/Users/etp-cp-ping/Desktop/LocalPC-EXP/subject-21.csv","psycho",21,41,41,"Lentiform Loewenfeld","3.3.8","['hori', 'hori', 'vert', 'vert', 'hori', 'vert', 'hori', 'vert']","no",209,"None","yes",0,NA,2,"legacy",NA,1024,2,48000,-16,"experiment",21,"odd","green","no",4,"diamond",438823.1605,438850.1258,438850.1661,NA,444199.177999999,NA,NA,133404.7142,1359.8422,NA,133404.7385,573142.6301,576072.239,NA,NA,NA,NA,1359.92229999965,444512.5839,NA,NA,573142.644999999,444863.6251,573142.5815,"New experiment",19,"[0, 92.43209488877493, 115.1844668830542, 135.99829693793845, 165.62010122472483, 196.65486419815113, 230.31513574433245, 279.6788247388868, 316.4225118814902, 352.115038020247, 396.45613853271806, 441.7045871999937, 488.57837055064425, 541.6998191457158, 577.2436169297464, 611.8570593043022, 702.450941955732]","dist_present",56,53,"yes","no",1680,NA,NA,NA,NA,"NR","NR","lp","Left",NA,"Left",NA,NA,NA,"practice",2,"NR","in"
"42",953.163300000597,52155.0561999982,52155.0561999982,24,24,"n",2,"['7', '4', 'space']","n","#000000","no",575888.846599999,1,"neutral","psycho","psycho","psycho",0,"uniform",1,0,0,0,NA,0,0,NA,0,0,0,0,41,41,NA,NA,NA,NA,0,0,0,NA,41,0,41,73.2296414732588,"Thu Nov 25 11:40:18 2021","The main experiment item","yes","green","no","None","circle",NA,"pinging_target_expectations 4.0.osexp","C:\Users\etp-cp-ping\Desktop\LocalPC-EXP",75,"no","mono","no",18,"no","white","no","yes",1050,NA,100,"psycho",41,0,41,"C:/Users/etp-cp-ping/Desktop/LocalPC-EXP/subject-21.csv","psycho",21,42,42,"Lentiform Loewenfeld","3.3.8","['hori', 'vert', 'vert', 'vert', 'hori', 'hori', 'vert', 'hori']","no",209,"None","yes",0,NA,2,"legacy",NA,1024,2,48000,-16,"experiment",21,"odd","red","no",4,"diamond",438823.1605,438850.1258,438850.1661,NA,444199.177999999,NA,NA,133404.7142,1359.8422,NA,133404.7385,576102.6587,579048.202599999,NA,NA,NA,NA,1359.92229999965,444512.5839,NA,NA,576102.673,444863.6251,576102.6074,"New experiment",19,"[0]","dist_absent",56,59,"yes","yes",1680,NA,NA,NA,NA,"R","NR","lp",NA,NA,NA,NA,NA,NA,"practice",4,"NR","in"
"43",1141.72930000047,53296.7854999987,53296.7854999987,25,25,"n",2,"['7', '4', 'space']","n","#000000","no",575888.846599999,1,"neutral","psycho","psycho","psycho",0,"uniform",1,0,0,0,NA,0,0,NA,0,0,0,0,42,42,NA,NA,NA,NA,0,0,0,NA,42,0,42,73.2296414732588,"Thu Nov 25 11:40:18 2021","The main experiment item","yes","red","no","1","diamond",NA,"pinging_target_expectations 4.0.osexp","C:\Users\etp-cp-ping\Desktop\LocalPC-EXP",75,"no","mono","no",18,"no","white","no","yes",1050,NA,100,"psycho",42,0,42,"C:/Users/etp-cp-ping/Desktop/LocalPC-EXP/subject-21.csv","psycho",21,43,43,"Lentiform Loewenfeld","3.3.8","['vert', 'hori', 'vert', 'vert', 'hori', 'vert', 'hori', 'hori']","no",209,"None","yes",0,NA,2,"legacy",NA,1024,2,48000,-16,"experiment",21,"odd","green","no",0,"circle",438823.1605,438850.1258,438850.1661,NA,444199.177999999,NA,NA,133404.7142,1359.8422,NA,133404.7385,579078.7731,582152.2444,NA,NA,NA,NA,1359.92229999965,444512.5839,NA,NA,579078.788,444863.6251,579078.7237,"New experiment",19,"[0]","dist_present",56,12,"yes","yes",1680,NA,NA,NA,NA,"NR","NR","lp","Left",NA,NA,NA,NA,NA,"practice",4,"R","in"
"44",1086.08360000013,54382.8690999988,54382.8690999988,26,26,"n",2,"['7', '4', 'space']","n","#000000","no",575888.846599999,1,"neutral","psycho","psycho","psycho",0,"uniform",1,0,0,0,NA,0,0,NA,0,0,0,0,43,43,NA,NA,NA,NA,0,0,0,NA,43,0,43,73.2296414732588,"Thu Nov 25 11:40:18 2021","The main experiment item","yes","red","no","5","diamond",NA,"pinging_target_expectations 4.0.osexp","C:\Users\etp-cp-ping\Desktop\LocalPC-EXP",75,"no","mono","no",18,"no","white","no","yes",1050,NA,100,"psycho",43,0,43,"C:/Users/etp-cp-ping/Desktop/LocalPC-EXP/subject-21.csv","psycho",21,44,44,"Lentiform Loewenfeld","3.3.8","['vert', 'vert', 'hori', 'hori', 'vert', 'hori', 'hori', 'vert']","no",209,"None","yes",0,NA,2,"legacy",NA,1024,2,48000,-16,"experiment",21,"odd","green","no",2,"circle",438823.1605,438850.1258,438850.1661,NA,444199.177999999,NA,NA,133404.7142,1359.8422,NA,133404.7385,582182.5153,585080.2436,NA,NA,NA,NA,1359.92229999965,444512.5839,NA,NA,582182.5311,444863.6251,582182.4581,"New experiment",19,"[0, 350.30482583169885, 341.3033173563916, 333.99244740975655, 330.601662489352, 326.4817596471882, 322.4100272841401, 318.9291210793742, 310.29323116865146, 300.5424629338881, 298.4421014534011, 289.207471011838, 284.7080796880352, 279.6114689953733, 274.91332461749903, 267.3094802790793, 259.2602122930231, 256.156960195964, 248.92531311377246, 244.1379459703017, 240.21859512199114, 234.87567531876627, 232.33720134096782, 221.31950624654652, 217.70038323427983, 212.89532703523133, 207.90865978941434, 202.77299049387327, 200.04132378262327, 192.79110236313247, 188.63408779207705, 185.03197166195514, 179.4920198380618, 171.34601902963863, 168.86033208817955, 163.69571191278337, 158.18891523375564, 151.97503447447156, 149.88399399293453, 143.89636857021966, 143.5397424618575, 138.0496233190656, 130.971200400979, 128.5069040354129, 124.10680883819388, 120.46525633309687, 115.78051721470328, 111.60166555823166, 103.54603588671013, 103.35733724606979, 99.52532742141567, 98.91705141947841, 95.88700177488184, 91.38277468314068, 90.91563955462088, 83.28368661422164, 78.69847807715789, 76.06314964801119, 76.23869282517609]","dist_present",56,36,"yes","yes",1680,NA,NA,NA,NA,"NR","NR","lp",NA,NA,NA,NA,NA,NA,"practice",0,"NR","in"
"45",847.93720000016,55230.8062999989,55230.8062999989,26,26,"n",2,"['7', '4', 'space']","n","#000000","no",575888.846599999,1,"neutral","psycho","psycho","psycho",0,"uniform",0,0,0,0,NA,0,0,NA,0,0,0,0,44,44,NA,NA,NA,NA,0,0,0,NA,44,0,44,73.2296414732588,"Thu Nov 25 11:40:18 2021","The main experiment item","yes","red","no","None","diamond",NA,"pinging_target_expectations 4.0.osexp","C:\Users\etp-cp-ping\Desktop\LocalPC-EXP",75,"no","mono","no",18,"no","white","no","yes",1050,NA,100,"psycho",44,0,44,"C:/Users/etp-cp-ping/Desktop/LocalPC-EXP/subject-21.csv","psycho",21,45,45,"Lentiform Loewenfeld","3.3.8","['vert', 'hori', 'vert', 'hori', 'vert', 'hori', 'vert', 'hori']","yes",109,"circles","yes",0,NA,2,"legacy",NA,1024,2,48000,-16,"experiment",21,"odd","green","no",2,"circle",438823.1605,438850.1258,438850.1661,NA,444199.177999999,NA,NA,133404.7142,1359.8422,NA,133404.7385,585110.7353,587928.1983,NA,NA,NA,NA,1359.92229999965,444512.5839,NA,NA,585110.75,444863.6251,585110.6861,"New experiment",19,"[0]","dist_absent",56,39,"yes","yes",1680,NA,NA,NA,NA,"R","NR","lp",NA,"Left",NA,"Left",NA,NA,"practice",2,"NR","in"
"46",927.088599999552,56157.8948999985,56157.8948999985,27,27,"n",2,"['7', '4', 'space']","n","#000000","no",588885.738,1,"neutral","psycho","psycho","psycho",0,"uniform",1,0,0,0,NA,0,0,NA,0,0,0,0,45,45,NA,NA,NA,NA,0,0,0,NA,45,0,45,73.2296414732588,"Thu Nov 25 11:40:18 2021","The main experiment item","yes","red","no","4","diamond",NA,"pinging_target_expectations 4.0.osexp","C:\Users\etp-cp-ping\Desktop\LocalPC-EXP",75,"no","mono","no",18,"no","white","no","yes",1050,NA,100,"psycho",45,0,45,"C:/Users/etp-cp-ping/Desktop/LocalPC-EXP/subject-21.csv","psycho",22,46,46,"Lentiform Loewenfeld","3.3.8","['vert', 'vert', 'vert', 'hori', 'hori', 'vert', 'hori', 'hori']","yes",109,"diamond","yes",0,NA,2,"legacy",NA,1024,2,48000,-16,"experiment",21,"odd","green","no",7,"circle",438823.1605,438850.1258,438850.1661,NA,444199.177999999,NA,NA,133404.7142,1359.8422,NA,133404.7385,587959.544899999,590904.257799999,NA,NA,NA,NA,1359.92229999965,444512.5839,NA,NA,587959.5593,444863.6251,587959.4941,"New experiment",19,"[0, 79.75321490753291, 93.01062833043422, 100.80401941187955, 116.02352344746585, 126.51045423892457, 134.01805458623204, 146.74639944309524, 155.76316065359444, 170.37212899669882, 182.68966551701808, 191.708204019237, 205.92644960987047, 223.98427874300606, 232.31966969196225, 246.00108695433673, 258.39081529291076, 273.8924806730525, 291.4201207531592, 303.973824649061, 324.5351464243111, 339.2289302256686, 355.69715594596425, 370.7711034681543, 389.53952431168926, 406.2260321355231, 427.84463403102444, 439.07413904724484, 460.0392880799961, 472.21948228882485, 495.94888334643855, 511.7958683397219, 523.0796308591356, 536.9843117352756, 567.5142052143875, 583.3351586141483]","dist_present",56,85,"yes","no",1680,NA,NA,NA,NA,"NR","NR","lp",NA,"Right",NA,NA,NA,NA,"practice",2,"R","in"
"47",1598.42800000031,57756.3228999988,57756.3228999988,27,27,"n",2,"['7', '4', 'space']","n","#000000","no",588885.738,1,"neutral","psycho","psycho","psycho",0,"uniform",0,0,0,0,NA,0,0,NA,0,0,0,0,46,46,NA,NA,NA,NA,0,0,0,NA,46,0,46,73.2296414732588,"Thu Nov 25 11:40:18 2021","The main experiment item","yes","green","no","7","circle",NA,"pinging_target_expectations 4.0.osexp","C:\Users\etp-cp-ping\Desktop\LocalPC-EXP",75,"no","mono","no",18,"no","white","no","yes",1050,NA,100,"psycho",46,0,46,"C:/Users/etp-cp-ping/Desktop/LocalPC-EXP/subject-21.csv","psycho",22,47,47,"Lentiform Loewenfeld","3.3.8","['vert', 'vert', 'vert', 'hori', 'vert', 'hori', 'hori', 'hori']","yes",109,"diamond","yes",0,NA,2,"legacy",NA,1024,2,48000,-16,"experiment",21,"odd","red","no",6,"diamond",438823.1605,438850.1258,438850.1661,NA,444199.177999999,NA,NA,133404.7142,1359.8422,NA,133404.7385,590934.7242,594312.2842,NA,NA,NA,NA,1359.92229999965,444512.5839,NA,NA,590934.7387,444863.6251,590934.6753,"New experiment",19,"[0, 74.05347144666085, 74.01526746634961, 74.39206362818331, 75.29793560547068, 77.59637452141648, 77.63053522937994, 77.527100502057, 78.79905367055589, 79.91858913089102, 79.91708748185322, 78.00799644758459, 76.25021860560852, 76.28955260979768, 76.9236634593023, 76.16627355205732, 76.26169311917411, 75.50681577523928, 75.49125241969979]","dist_present",56,78,"yes","yes",1680,NA,NA,NA,NA,"NR","NR","lp",NA,NA,NA,NA,NA,NA,"practice",7,"NR","in"
"48",1093.53879999986,58849.8616999987,58849.8616999987,28,28,"n",2,"['7', '4', 'space']","n","#000000","no",594897.3602,1,"neutral","psycho","psycho","psycho",0,"uniform",1,0,0,0,NA,0,0,NA,0,0,0,0,47,47,NA,NA,NA,NA,0,0,0,NA,47,0,47,73.2296414732588,"Thu Nov 25 11:40:18 2021","The main experiment item","yes","red","no","None","diamond",NA,"pinging_target_expectations 4.0.osexp","C:\Users\etp-cp-ping\Desktop\LocalPC-EXP",75,"no","mono","no",18,"no","white","no","yes",1050,NA,100,"psycho",47,0,47,"C:/Users/etp-cp-ping/Desktop/LocalPC-EXP/subject-21.csv","psycho",23,48,48,"Lentiform Loewenfeld","3.3.8","['hori', 'vert', 'hori', 'vert', 'vert', 'hori', 'hori', 'vert']","no",209,"None","yes",0,NA,2,"legacy",NA,1024,2,48000,-16,"experiment",21,"odd","green","no",7,"circle",438823.1605,438850.1258,438850.1661,NA,444199.177999999,NA,NA,133404.7142,1359.8422,NA,133404.7385,594342.9484,597432.2032,NA,NA,NA,NA,1359.92229999965,444512.5839,NA,NA,594342.9632,444863.6251,594342.8976,"New experiment",19,"[0, 77.30058568261497, 84.99645600953274, 91.5264548958438, 97.0447789104065, 107.42092107531342, 113.3896151300309, 116.1077086157504, 127.60033324386758, 134.55573129458105, 143.96588342666678, 145.16410302358233, 162.73345439009975, 167.06553788185659, 175.25626356830296, 183.52731325858383, 195.86254264864752, 203.24211790672751, 209.31900304124287, 219.69408085471443, 229.47794036627224, 241.28376344958497, 252.20377895782136, 263.59658248144956, 275.72458490085745, 286.6286044341772, 297.8323728326543, 311.941828026103, 324.7275068515999, 335.7709167463966, 351.03561072916807, 362.1168904087968, 371.8048426468189, 386.4177389270843, 396.13815854974166, 404.4360765433356, 416.9604777551067, 427.288591752799, 442.4367516398929, 450.03693340189585, 460.1363279218863, 467.8365004385383, 481.14718182802994, 488.1549853271061, 501.8066322907049, 515.7672044531852, 516.7228961836631, 520.4238657094811, 535.3372768638478, 560.5897578980167]","dist_absent",56,89,"yes","no",1680,NA,NA,NA,NA,"NR","NR","lp",NA,"Right",NA,NA,NA,NA,"practice",6,"NR","in"
"49",1083.35099999933,59933.212699998,59933.212699998,29,29,"n",2,"['7', '4', 'space']","n","#000000","no",598476.9303,1,"neutral","psycho","psycho","psycho",0,"uniform",1,0,0,0,NA,0,0,NA,0,0,0,0,48,48,NA,NA,NA,NA,0,0,0,NA,48,0,48,73.2296414732588,"Thu Nov 25 11:40:18 2021","The main experiment item","yes","red","no","4","diamond",NA,"pinging_target_expectations 4.0.osexp","C:\Users\etp-cp-ping\Desktop\LocalPC-EXP",75,"no","mono","no",18,"no","white","no","yes",1050,NA,100,"psycho",48,0,48,"C:/Users/etp-cp-ping/Desktop/LocalPC-EXP/subject-21.csv","psycho",24,49,49,"Lentiform Loewenfeld","3.3.8","['hori', 'hori', 'hori', 'vert', 'hori', 'vert', 'vert', 'vert']","no",209,"None","yes",0,NA,2,"legacy",NA,1024,2,48000,-16,"experiment",21,"odd","green","no",1,"circle",438823.1605,438850.1258,438850.1661,NA,444199.177999999,NA,NA,133404.7142,1359.8422,NA,133404.7385,597462.7381,600424.2471,NA,NA,NA,NA,1359.92229999965,444512.5839,NA,NA,597462.7526,444863.6251,597462.6875,"New experiment",19,"[0]","dist_present",56,25,"yes","yes",1680,NA,NA,NA,NA,"NR","NR","lp",NA,"Left",NA,NA,NA,NA,"practice",7,"NR","in"
"50",1401.21140000073,61334.4240999987,61334.4240999987,30,30,"n",2,"['7', '4', 'space']","n","#000000","no",598476.9303,1,"neutral","psycho","psycho","psycho",0,"uniform",1,0,0,0,NA,0,0,NA,0,0,0,0,49,49,NA,NA,NA,NA,0,0,0,NA,49,0,49,73.2296414732588,"Thu Nov 25 11:40:18 2021","The main experiment item","yes","red","no","2","diamond",NA,"pinging_target_expectations 4.0.osexp","C:\Users\etp-cp-ping\Desktop\LocalPC-EXP",75,"no","mono","no",18,"no","white","no","yes",1050,NA,100,"psycho",49,0,49,"C:/Users/etp-cp-ping/Desktop/LocalPC-EXP/subject-21.csv","psycho",24,50,50,"Lentiform Loewenfeld","3.3.8","['vert', 'hori', 'hori', 'vert', 'vert', 'vert', 'hori', 'hori']","no",209,"None","yes",0,NA,2,"legacy",NA,1024,2,48000,-16,"experiment",21,"odd","green","no",3,"circle",438823.1605,438850.1258,438850.1661,NA,444199.177999999,NA,NA,133404.7142,1359.8422,NA,133404.7385,600458.0805,603960.307,NA,NA,NA,NA,1359.92229999965,444512.5839,NA,NA,600458.0955,444863.6251,600458.0315,"New experiment",19,"[0]","dist_present",56,43,"yes","yes",1680,NA,NA,NA,NA,"NR","NR","lp",NA,NA,NA,NA,NA,NA,"practice",1,"NR","in"
"51",1610.19850000052,62944.6225999992,62944.6225999992,30,30,"n",2,"['7', '4', 'space']","n","#000000","no",604813.5374,1,"neutral","psycho","psycho","psycho",0,"uniform",0,0,0,0,NA,0,0,NA,0,0,0,0,50,50,NA,NA,NA,NA,0,0,0,NA,50,0,50,73.2296414732588,"Thu Nov 25 11:40:18 2021","The main experiment item","yes","red","no","None","diamond",NA,"pinging_target_expectations 4.0.osexp","C:\Users\etp-cp-ping\Desktop\LocalPC-EXP",75,"no","mono","no",18,"no","white","no","yes",1050,NA,100,"psycho",50,0,50,"C:/Users/etp-cp-ping/Desktop/LocalPC-EXP/subject-21.csv","psycho",25,51,51,"Lentiform Loewenfeld","3.3.8","['hori', 'vert', 'vert', 'vert', 'vert', 'hori', 'hori', 'hori']","no",209,"None","yes",0,NA,2,"legacy",NA,1024,2,48000,-16,"experiment",21,"odd","green","no",1,"circle",438823.1605,438850.1258,438850.1661,NA,444199.177999999,NA,NA,133404.7142,1359.8422,NA,133404.7385,603992.1699,607560.2105,NA,NA,NA,NA,1359.92229999965,444512.5839,NA,NA,603992.1841,444863.6251,603992.1197,"New experiment",19,"[0, 80.5437606242037, 93.2965545050849, 106.64598244327, 117.94847952916957, 129.49875004110012, 143.067874994596, 164.11852641579125, 178.817276893553, 188.43789956425496, 204.69422130543924, 221.23440013308698, 234.20548129944328, 247.76253743464727, 264.36960032532517, 282.20876182185526, 298.11616863229676, 314.1830592764809, 332.0359341360778, 346.9972489604679, 365.1673637991018, 383.3313048714315, 401.91910835167243, 414.3006028907807, 438.53013737009746, 452.46921195652135, 469.0890107431637, 484.2608710604592, 505.1217462601708, 525.9112330738362, 529.5946484252153, 547.0700511223047, 572.8223650482012]","dist_absent",56,29,"yes","no",1680,NA,NA,NA,NA,"NR","NR","lp",NA,"Left",NA,NA,NA,NA,"practice",3,"NR","in"
"52",1349.68449999997,64294.3070999992,64294.3070999992,31,31,"n",2,"['7', '4', 'space']","n","#000000","no",608172.609,1,"neutral","psycho","psycho","psycho",0,"uniform",1,0,0,0,NA,0,0,NA,0,0,0,0,51,51,NA,NA,NA,NA,0,0,0,NA,51,0,51,73.2296414732588,"Thu Nov 25 11:40:18 2021","The main experiment item","yes","red","no","None","circle",NA,"pinging_target_expectations 4.0.osexp","C:\Users\etp-cp-ping\Desktop\LocalPC-EXP",75,"no","mono","no",18,"no","white","no","yes",1050,NA,100,"psycho",51,0,51,"C:/Users/etp-cp-ping/Desktop/LocalPC-EXP/subject-21.csv","psycho",26,52,52,"Lentiform Loewenfeld","3.3.8","['hori', 'hori', 'vert', 'vert', 'vert', 'hori', 'hori', 'vert']","no",209,"None","yes",0,NA,2,"legacy",NA,1024,2,48000,-16,"experiment",21,"odd","green","no",4,"diamond",438823.1605,438850.1258,438850.1661,NA,444199.177999999,NA,NA,133404.7142,1359.8422,NA,133404.7385,607590.6568,610760.2715,NA,NA,NA,NA,1359.92229999965,444512.5839,NA,NA,607590.6728,444863.6251,607590.6066,"New experiment",19,"[0, 84.8877554359256, 92.0709171464064, 105.25743062444786, 111.86349273046825, 118.665286961228, 133.42340102257282, 137.6748385753875, 147.61073121962272, 160.5259553128461, 171.027927863772, 183.5115489915591, 194.6415575620378, 207.19470278769532, 214.7743296253461, 230.8212039509381, 242.81287003772633, 253.63406579372463, 264.8192847060932, 280.07602656989565, 300.7073588418179, 312.04506669694786, 326.8336052452056, 340.24681955929435, 359.3973967579438, 373.78691952241377, 386.0063969278729, 401.4366560836922, 412.62576142812674, 428.0351876170692, 437.7270229560631, 457.9422161315011, 470.89785593338286, 480.4592889337806, 496.6639108042892, 502.11884050028846, 516.6068875670736, 527.1580259617965]","dist_absent",56,59,"yes","no",1680,NA,NA,NA,NA,"NR","R","lp",NA,NA,NA,NA,NA,NA,"practice",1,"NR","in"
"53",2000.23199999938,66294.5390999986,66294.5390999986,31,31,"n",2,"['7', '4', 'space']","n","#000000","no",611541.6736,1,"neutral","psycho","psycho","psycho",0,"uniform",0,0,0,0,NA,0,0,NA,0,0,0,0,52,52,NA,NA,NA,NA,0,0,0,NA,52,0,52,73.2296414732588,"Thu Nov 25 11:40:18 2021","The main experiment item","yes","red","no","5","circle",NA,"pinging_target_expectations 4.0.osexp","C:\Users\etp-cp-ping\Desktop\LocalPC-EXP",75,"no","mono","no",18,"no","white","no","yes",1050,NA,100,"psycho",52,0,52,"C:/Users/etp-cp-ping/Desktop/LocalPC-EXP/subject-21.csv","psycho",27,53,53,"Lentiform Loewenfeld","3.3.8","['vert', 'hori', 'vert', 'hori', 'hori', 'vert', 'vert', 'hori']","no",209,"None","yes",0,NA,2,"legacy",NA,1024,2,48000,-16,"experiment",21,"odd","green","no",7,"diamond",438823.1605,438850.1258,438850.1661,NA,444199.177999999,NA,NA,133404.7142,1359.8422,NA,133404.7385,610790.6567,614698.9445,NA,NA,NA,NA,1359.92229999965,444512.5839,NA,NA,610790.6711,444863.6251,610790.6076,"New experiment",19,"[0]","dist_present",56,86,"yes","yes",1680,NA,NA,NA,NA,"NR","NR","lp",NA,NA,NA,NA,NA,NA,"practice",4,"NR","in"
"54",1068.83039999951,67363.3694999981,67363.3694999981,32,32,"n",2,"['7', '4', 'space']","n","#000000","no",611541.6736,1,"neutral","psycho","psycho","psycho",0,"uniform",1,0,0,0,NA,0,0,NA,0,0,0,0,53,53,NA,NA,NA,NA,0,0,0,NA,53,0,53,73.2296414732588,"Thu Nov 25 11:40:18 2021","The main experiment item","yes","green","no","None","diamond",NA,"pinging_target_expectations 4.0.osexp","C:\Users\etp-cp-ping\Desktop\LocalPC-EXP",75,"no","mono","no",18,"no","white","no","yes",1050,NA,100,"psycho",53,0,53,"C:/Users/etp-cp-ping/Desktop/LocalPC-EXP/subject-21.csv","psycho",27,54,54,"Lentiform Loewenfeld","3.3.8","['vert', 'hori', 'vert', 'hori', 'vert', 'vert', 'hori', 'hori']","no",209,"None","yes",0,NA,2,"legacy",NA,1024,2,48000,-16,"experiment",21,"odd","red","no",1,"circle",438823.1605,438850.1258,438850.1661,NA,444199.177999999,NA,NA,133404.7142,1359.8422,NA,133404.7385,614729.1822,617688.3559,NA,NA,NA,NA,1359.92229999965,444512.5839,NA,NA,614729.1967,444863.6251,614729.1332,"New experiment",19,"[0]","dist_absent",56,29,"yes","yes",1680,NA,NA,NA,NA,"NR","NR","lp",NA,"Left",NA,NA,NA,NA,"practice",7,"NR","in"
"55",1235.70039999962,68599.0698999977,68599.0698999977,32,32,"n",2,"['7', '4', 'space']","n","#000000","no",611541.6736,1,"neutral","psycho","psycho","psycho",0,"uniform",0,0,0,0,NA,0,0,NA,0,0,0,0,54,54,NA,NA,NA,NA,0,0,0,NA,54,0,54,73.2296414732588,"Thu Nov 25 11:40:18 2021","The main experiment item","yes","green","no","1","diamond",NA,"pinging_target_expectations 4.0.osexp","C:\Users\etp-cp-ping\Desktop\LocalPC-EXP",75,"no","mono","no",18,"no","white","no","yes",1050,NA,100,"psycho",54,0,54,"C:/Users/etp-cp-ping/Desktop/LocalPC-EXP/subject-21.csv","psycho",27,55,55,"Lentiform Loewenfeld","3.3.8","['vert', 'hori', 'vert', 'hori', 'vert', 'hori', 'vert', 'hori']","yes",109,"diamond","yes",0,NA,2,"legacy",NA,1024,2,48000,-16,"experiment",21,"odd","red","no",3,"circle",438823.1605,438850.1258,438850.1661,NA,444199.177999999,NA,NA,133404.7142,1359.8422,NA,133404.7385,617720.6979,620968.201499999,NA,NA,NA,NA,1359.92229999965,444512.5839,NA,NA,617720.7125,444863.6251,617720.6486,"New experiment",19,"[0]","dist_present",56,42,"yes","yes",1680,NA,NA,NA,NA,"NR","NR","lp",NA,NA,NA,NA,NA,NA,"practice",1,"NR","in"
"56",1445.67700000061,70044.7468999983,70044.7468999983,32,32,"n",2,"['7', '4', 'space']","n","#000000","no",621663.8657,1,"neutral","psycho","psycho","psycho",0,"uniform",0,0,0,0,NA,0,0,NA,0,0,0,0,55,55,NA,NA,NA,NA,0,0,0,NA,55,0,55,73.2296414732588,"Thu Nov 25 11:40:18 2021","The main experiment item","yes","green","no","3","circle",NA,"pinging_target_expectations 4.0.osexp","C:\Users\etp-cp-ping\Desktop\LocalPC-EXP",75,"no","mono","no",18,"no","white","no","yes",1050,NA,100,"psycho",55,0,55,"C:/Users/etp-cp-ping/Desktop/LocalPC-EXP/subject-21.csv","psycho",28,56,56,"Lentiform Loewenfeld","3.3.8","['hori', 'vert', 'hori', 'hori', 'vert', 'hori', 'vert', 'vert']","yes",109,"diamond","yes",0,NA,2,"legacy",NA,1024,2,48000,-16,"experiment",21,"odd","red","no",6,"diamond",438823.1605,438850.1258,438850.1661,NA,444199.177999999,NA,NA,133404.7142,1359.8422,NA,133404.7385,621000.0209,624472.2361,NA,NA,NA,NA,1359.92229999965,444512.5839,NA,NA,621000.0389,444863.6251,620999.9722,"New experiment",19,"[0, 75.46788512056673, 81.18039677957763, 90.09349982622302, 99.13351937204027, 110.65195899880933, 120.42567233008289, 124.70196963347871, 143.4306698060642, 153.50014144244855, 166.6316576935617, 175.20963966640605, 185.45385528202195, 201.01826939695755, 213.29851896091242, 224.65479561403538, 236.2742780132525, 251.05897099873948, 265.94317466037324, 278.8933189666937, 295.9554576289999, 314.5943680459819, 324.315121166718, 341.17072085189596, 356.6882676180252, 376.68251800761783, 386.2489482186327, 403.4424840839992, 418.8338342503998, 441.2101499909984, 449.1371813009403, 468.0301353833466, 483.518433288319, 497.16995310017035, 541.3005172729839, 557.0192312868903]","dist_present",56,74,"yes","no",1680,NA,NA,NA,NA,"NR","NR","lp",NA,NA,NA,NA,NA,NA,"practice",3,"NR","in"
"57",1137.07459999935,1137.07459999935,71181.8214999977,1,33,"n",2,"['7', '4', 'space']","n","#000000","no",621663.8657,2,"bias","psycho","psycho","psycho",0,"uniform",1,0,1,1,NA,1,0,NA,0,0,1,0,56,56,NA,NA,NA,NA,0,1,1,NA,56,1,56,73.2296414732588,"Thu Nov 25 11:40:18 2021","The main experiment item","yes","green","yes","6","diamond",NA,"pinging_target_expectations 4.0.osexp","C:\Users\etp-cp-ping\Desktop\LocalPC-EXP",75,"no","mono","no",18,"no","white","no","yes",1050,NA,6,"psycho",0,1,0,"C:/Users/etp-cp-ping/Desktop/LocalPC-EXP/subject-21.csv","psycho",0,57,1,"Lentiform Loewenfeld","3.3.8","['hori', 'vert', 'vert', 'vert', 'hori', 'hori', 'hori', 'vert']","no",206,"None","no",0,NA,2,"legacy",NA,1024,2,48000,-16,"experiment",21,"odd","red","no",7,"circle",438823.1605,695969.7989,695969.8471,NA,717692.1608,NA,NA,133404.7142,1359.8422,625010.0994,133404.7385,738609.9147,741560.174799999,NA,NA,NA,NA,1359.92229999965,738235.5025,624502.4745,NA,738609.9305,738605.5925,738609.8701,"New experiment",19,"[0]","dist_present",56,87,"yes","yes",1680,-21.941208377944,2.37971413276224,"more toward","False","NR","NR","lp",NA,NA,NA,NA,-1,0,"first",999,"NR","in"
"58",1084.90280000016,2221.97739999951,72266.7242999978,2,34,"n",2,"['7', '4', 'space']","n","#000000","no",742679.8128,2,"bias","psycho","psycho","psycho",0,"uniform",1,0,1,1,NA,1,0,NA,0,0,1,0,57,57,NA,NA,NA,NA,0,1,1,NA,57,1,57,73.2296414732588,"Thu Nov 25 11:40:18 2021","The main experiment item","yes","green","no","None","circle",NA,"pinging_target_expectations 4.0.osexp","C:\Users\etp-cp-ping\Desktop\LocalPC-EXP",75,"no","mono","no",18,"no","white","no","yes",1050,NA,6,"psycho",1,1,1,"C:/Users/etp-cp-ping/Desktop/LocalPC-EXP/subject-21.csv","psycho",1,58,2,"Lentiform Loewenfeld","3.3.8","['hori', 'vert', 'vert', 'vert', 'hori', 'hori', 'vert', 'hori']","no",206,"None","no",0,NA,2,"legacy",NA,1024,2,48000,-16,"experiment",21,"odd","red","no",0,"diamond",438823.1605,695969.7989,695969.8471,NA,717692.1608,NA,NA,133404.7142,1359.8422,625010.0994,133404.7385,741593.1572,744552.2271,NA,NA,NA,NA,1359.92229999965,738235.5025,624502.4745,NA,741593.171399999,738605.5925,741593.1103,"New experiment",19,"[0]","dist_absent",56,19,"yes","yes",1680,NA,NA,"no hp","True","NR","NR","lp",NA,NA,NA,NA,-2,NA,"first",7,"NR","in"
"59",676.722199999844,2898.69959999935,72943.4464999977,3,35,"n",2,"['7', '4', 'space']","n","#000000","no",742679.8128,2,"bias","psycho","psycho","psycho",0,"uniform",1,0,1,1,NA,1,0,NA,0,0,1,0,58,58,NA,NA,NA,NA,0,1,1,NA,58,1,58,73.2296414732588,"Thu Nov 25 11:40:18 2021","The main experiment item","yes","red","no","None","circle",NA,"pinging_target_expectations 4.0.osexp","C:\Users\etp-cp-ping\Desktop\LocalPC-EXP",75,"no","mono","no",18,"no","white","no","yes",1050,NA,6,"psycho",2,1,2,"C:/Users/etp-cp-ping/Desktop/LocalPC-EXP/subject-21.csv","psycho",1,59,3,"Lentiform Loewenfeld","3.3.8","['vert', 'hori', 'vert', 'hori', 'vert', 'vert', 'hori', 'hori']","yes",106,"circles","no",0,NA,2,"legacy",NA,1024,2,48000,-16,"experiment",21,"odd","green","yes",6,"diamond",438823.1605,695969.7989,695969.8471,NA,717692.1608,NA,NA,133404.7142,1359.8422,625010.0994,133404.7385,744582.8649,747112.2276,NA,NA,NA,NA,1359.92229999965,738235.5025,624502.4745,NA,744582.8799,738605.5925,744582.814,"New experiment",19,"[0]","dist_absent",56,79,"yes","yes",1680,-11.7794583779441,-9.43653586723776,"more toward","False","NR","R","lp",NA,"Right",NA,"Right",0,NA,"first",0,"NR","ex"
"60",803.13219999976,3701.83179999911,73746.5786999975,4,36,"n",2,"['7', '4', 'space']","n","#000000","no",747896.9238,2,"bias","psycho","psycho","psycho",0,"uniform",1,0,1,1,NA,1,0,NA,0,0,1,0,59,59,NA,NA,NA,NA,0,1,1,NA,59,1,59,73.2296414732588,"Thu Nov 25 11:40:18 2021","The main experiment item","yes","green","no","None","circle",NA,"pinging_target_expectations 4.0.osexp","C:\Users\etp-cp-ping\Desktop\LocalPC-EXP",75,"no","mono","no",18,"no","white","no","yes",1050,NA,6,"psycho",3,1,3,"C:/Users/etp-cp-ping/Desktop/LocalPC-EXP/subject-21.csv","psycho",2,60,4,"Lentiform Loewenfeld","3.3.8","['hori', 'vert', 'hori', 'vert', 'vert', 'hori', 'vert', 'hori']","yes",106,"diamond","no",0,NA,2,"legacy",NA,1024,2,48000,-16,"experiment",21,"odd","red","no",2,"diamond",438823.1605,695969.7989,695969.8471,NA,717692.1608,NA,NA,133404.7142,1359.8422,625010.0994,133404.7385,747142.9176,749928.1664,NA,NA,NA,NA,1359.92229999965,738235.5025,624502.4745,NA,747142.9323,738605.5925,747142.8677,"New experiment",19,"[0, 78.93354037661977, 95.27986416158024, 111.47254116634431, 124.1710765436168, 140.43934440892411, 155.2676383429648, 168.10599979765726, 184.35794276236354, 197.0568941727648, 214.78589754038265, 229.3640671462116, 242.76549739127492, 266.3682514139567, 279.66629319043034, 301.0299182873725, 322.80307568074056, 346.59863843083707, 368.0052688685852, 388.83851650646193, 408.9509985336396, 427.5037679013192, 446.10644641520673, 469.54837722506045, 488.85726631712805, 505.675819723784, 528.180344629216, 549.8758258928718, 570.0253300549876, 589.1283668330904, 620.6190771368941, 637.4902674157506, 660.6437123853962, 669.6363090706658, 690.4605595025096, 707.4870575609225, 739.0217326064582]","dist_absent",56,39,"yes","no",1680,-15.960583377944,-6.94253586723774,"more toward","False","NR","R","hp",NA,"Left",NA,"Left",4,NA,"first",6,"NR","in"
"61",842.338899999973,4544.17069999909,74588.9175999974,5,37,"n",2,"['7', '4', 'space']","n","#000000","no",750831.4499,2,"bias","psycho","psycho","psycho",0,"uniform",1,0,1,1,NA,1,0,NA,0,0,1,0,60,60,NA,NA,NA,NA,0,1,1,NA,60,1,60,73.2296414732588,"Thu Nov 25 11:40:18 2021","The main experiment item","yes","green","no","0","circle",NA,"pinging_target_expectations 4.0.osexp","C:\Users\etp-cp-ping\Desktop\LocalPC-EXP",75,"no","mono","no",18,"no","white","no","yes",1050,NA,6,"psycho",4,1,4,"C:/Users/etp-cp-ping/Desktop/LocalPC-EXP/subject-21.csv","psycho",3,61,5,"Lentiform Loewenfeld","3.3.8","['hori', 'vert', 'vert', 'hori', 'hori', 'vert', 'vert', 'hori']","no",206,"None","no",0,NA,2,"legacy",NA,1024,2,48000,-16,"experiment",21,"odd","red","yes",6,"diamond",438823.1605,695969.7989,695969.8471,NA,717692.1608,NA,NA,133404.7142,1359.8422,625010.0994,133404.7385,749960.6434,752744.1786,NA,NA,NA,NA,1359.92229999965,738235.5025,624502.4745,NA,749960.6578,738605.5925,749960.593499999,"New experiment",19,"[0, 76.82723662289675, 78.43888964780342, 80.50623300246285, 91.32496920338927, 95.6169603186939, 103.14423349287313, 109.55566752619474, 119.88949263524341, 124.4235231195048, 133.10375274251746, 133.19702657411065, 137.70067584412934, 142.2052289513771, 148.65291471321552, 160.12508065596367, 163.90486906591997, 172.45644609808716, 176.58482881487504, 179.6056387714927, 194.4231410440591, 199.28175899407861, 205.7619719163743, 217.51953847675665, 229.10136301675064, 232.41672584107138, 242.85658935001734, 252.51981616045805, 259.8737770064289, 267.63096826746795, 274.80676688534754, 284.4521872667188, 296.80765572517004, 306.63726701983137, 314.9720445494434, 318.35892825122215, 331.6756293989767, 343.0465524188592, 350.3316160108276, 361.68531409315585, 378.20342486367576, 382.8946731352268, 390.2798206051427, 403.8711802080422, 403.9320018084253, 421.16015930711893, 428.4064916437662, 428.28347986867095, 450.434926621058, 457.8615939653782, 469.4150615393588, 481.543338319292, 491.1925303733063, 498.8428996098983, 513.294787114582, 521.2335294113554, 532.2617643610913, 537.4209601587651, 552.6431485450553, 561.2299286434912, 572.2955543325409, 581.7344276443005, 600.548787292065, 609.7283254046704, 618.0066087091657, 627.5906199895194, 637.2741885611349]","dist_present",56,71,"yes","no",1680,-8.71114587794407,3.59865163276227,"more toward","False","NR","NR","lp",NA,"Right",NA,"Right",0,-2,"first",2,"NR","ex"
"62",928.363699999754,5472.53439999884,75517.2812999972,6,38,"n",2,"['7', '4', 'space']","n","#000000","no",750831.4499,2,"bias","psycho","psycho","psycho",0,"uniform",1,0,1,1,NA,1,0,NA,0,0,1,0,61,61,NA,NA,NA,NA,0,1,1,NA,61,1,61,73.2296414732588,"Thu Nov 25 11:40:18 2021","The main experiment item","yes","green","no","4","circle",NA,"pinging_target_expectations 4.0.osexp","C:\Users\etp-cp-ping\Desktop\LocalPC-EXP",75,"no","mono","no",18,"no","white","no","yes",1050,NA,6,"psycho",5,1,5,"C:/Users/etp-cp-ping/Desktop/LocalPC-EXP/subject-21.csv","psycho",3,62,6,"Lentiform Loewenfeld","3.3.8","['hori', 'hori', 'vert', 'vert', 'vert', 'vert', 'hori', 'hori']","yes",106,"circles","no",0,NA,2,"legacy",NA,1024,2,48000,-16,"experiment",21,"odd","red","yes",6,"diamond",438823.1605,695969.7989,695969.8471,NA,717692.1608,NA,NA,133404.7142,1359.8422,625010.0994,133404.7385,752774.8892,755768.1989,NA,NA,NA,NA,1359.92229999965,738235.5025,624502.4745,NA,752774.9035,738605.5925,752774.8393,"New experiment",19,"[0]","dist_present",56,75,"yes","yes",1680,1.66479162205611,6.42746413276225,"more away","False","R","NR","hp",NA,"Right",NA,"Right",0,2,"first",6,"NR","ex"
"63",645.590299999691,6118.12469999853,76162.8715999969,7,39,"n",2,"['7', '4', 'space']","n","#000000","no",756726.5827,2,"bias","psycho","psycho","psycho",0,"uniform",1,0,1,1,NA,1,0,NA,0,0,1,0,62,62,NA,NA,NA,NA,0,1,1,NA,62,1,62,73.2296414732588,"Thu Nov 25 11:40:18 2021","The main experiment item","yes","green","no","None","diamond",NA,"pinging_target_expectations 4.0.osexp","C:\Users\etp-cp-ping\Desktop\LocalPC-EXP",75,"no","mono","no",18,"no","white","no","yes",1050,NA,6,"psycho",6,1,6,"C:/Users/etp-cp-ping/Desktop/LocalPC-EXP/subject-21.csv","psycho",4,63,7,"Lentiform Loewenfeld","3.3.8","['hori', 'vert', 'hori', 'vert', 'hori', 'vert', 'vert', 'hori']","yes",106,"diamond","no",0,NA,2,"legacy",NA,1024,2,48000,-16,"experiment",21,"odd","red","yes",6,"circle",438823.1605,695969.7989,695969.8471,NA,717692.1608,NA,NA,133404.7142,1359.8422,625010.0994,133404.7385,755798.9066,758376.1769,NA,NA,NA,NA,1359.92229999965,738235.5025,624502.4745,NA,755798.9212,738605.5925,755798.8553,"New experiment",19,"[0, 74.19026887735679, 74.2883710301491, 87.68138827374123, 94.6862776581589, 108.36871717569137, 115.87520325545402, 125.71402986416707, 133.33167044352973, 143.47417351843163, 154.32047311634417, 162.73256090713585, 172.02453495068877, 182.0567982473773, 187.5554410547426, 200.23125694997327, 216.55770185431555, 228.77989839402377, 241.8364983487685, 257.7884603138722, 269.92459057968335, 286.6510889000394, 300.9675439920754, 315.7498354534304, 327.39583374430134, 344.247513330992, 363.3213979159423, 381.01771612354196, 399.12978865085586, 415.7667460888635, 432.74767068060964, 449.71032554778816, 463.27631056863066, 482.37728071976045, 499.0400785508114, 518.3903379222775, 528.2714183382493, 553.7046394857898, 560.8834396542837, 581.0025344514976, 594.7515409266068, 613.5846059148839, 655.2071189521575, 679.6365034640362, 705.7349114291865]","dist_absent",56,79,"yes","no",1680,-4.46577087794399,1.64258913276223,"more away","False","R","NR","hp",NA,"Right",NA,"Right",0,NA,"first",6,"R","ex"
"64",833.28600000008,6951.41069999861,76996.157599997,8,40,"n",2,"['7', '4', 'space']","n","#000000","no",756726.5827,2,"bias","psycho","psycho","psycho",0,"uniform",1,0,1,1,NA,1,0,NA,0,0,1,0,63,63,NA,NA,NA,NA,0,1,1,NA,63,1,63,73.2296414732588,"Thu Nov 25 11:40:18 2021","The main experiment item","yes","green","no","None","diamond",NA,"pinging_target_expectations 4.0.osexp","C:\Users\etp-cp-ping\Desktop\LocalPC-EXP",75,"no","mono","no",18,"no","white","no","yes",1050,NA,6,"psycho",7,1,7,"C:/Users/etp-cp-ping/Desktop/LocalPC-EXP/subject-21.csv","psycho",4,64,8,"Lentiform Loewenfeld","3.3.8","['vert', 'hori', 'hori', 'vert', 'hori', 'vert', 'hori', 'vert']","no",206,"None","no",0,NA,2,"legacy",NA,1024,2,48000,-16,"experiment",21,"odd","red","no",4,"circle",438823.1605,695969.7989,695969.8471,NA,717692.1608,NA,NA,133404.7142,1359.8422,625010.0994,133404.7385,758406.9955,761048.2159,NA,NA,NA,NA,1359.92229999965,738235.5025,624502.4745,NA,758407.0097,738605.5925,758406.945,"New experiment",19,"[0]","dist_absent",56,59,"yes","yes",1680,-10.2844583779438,-1.53428586723771,"more toward","False","NR","R","hp",NA,NA,NA,NA,2,NA,"first",6,"R","in"
"65",693.20979999972,7644.62049999833,77689.3673999967,9,41,"n",2,"['7', '4', 'space']","n","#000000","no",761850.201799999,2,"bias","psycho","psycho","psycho",0,"uniform",1,0,1,1,NA,1,0,NA,0,0,1,0,64,64,NA,NA,NA,NA,0,1,1,NA,64,1,64,73.2296414732588,"Thu Nov 25 11:40:18 2021","The main experiment item","yes","red","no","3","diamond",NA,"pinging_target_expectations 4.0.osexp","C:\Users\etp-cp-ping\Desktop\LocalPC-EXP",75,"no","mono","no",18,"no","white","no","yes",1050,NA,6,"psycho",8,1,8,"C:/Users/etp-cp-ping/Desktop/LocalPC-EXP/subject-21.csv","psycho",5,65,9,"Lentiform Loewenfeld","3.3.8","['hori', 'hori', 'hori', 'hori', 'vert', 'vert', 'vert', 'vert']","yes",106,"circles","no",0,NA,2,"legacy",NA,1024,2,48000,-16,"experiment",21,"odd","green","yes",6,"circle",438823.1605,695969.7989,695969.8471,NA,717692.1608,NA,NA,133404.7142,1359.8422,625010.0994,133404.7385,761078.9643,763544.267,NA,NA,NA,NA,1359.92229999965,738235.5025,624502.4745,NA,761078.9787,738605.5925,761078.9158,"New experiment",19,"[0, 73.87179241000814, 82.83310162375044, 93.71368639153296, 102.74569711850461, 111.63961828185339, 122.37028703258667, 130.5423034152446, 149.22887117998678, 152.58045217119513, 170.5615462367988, 173.99612593624292, 189.75152132130785, 198.43353892454215, 211.89624820860658, 219.59611227627917, 240.27226448157256, 250.19173745006538, 263.56168131653664, 275.3963348743174, 294.45520095364776, 308.2997446816992, 324.56894491001447, 339.7941894034445, 355.5548922443986, 367.4057567363487, 379.7597808032373, 398.5337978911251, 419.1460278600999, 426.0353516344453, 442.4149970494429, 460.7917775321208, 470.5818753611928, 489.8677231823106, 503.07397385369285, 520.2355461228191, 529.44866478035, 554.0503920217137, 564.4134855112462, 567.003559591435, 586.9215908315034, 595.6433379055065, 611.8628415025091, 624.8777817747757, 635.0096162688459, 644.5460308683968, 673.1904093611703]","dist_present",56,74,"yes","no",1680,-18.2342708779441,0.550901632762183,"more toward","False","NR","NR","lp",NA,NA,NA,NA,0,3,"first",4,"NR","ex"
"66",1250.58590000018,8895.20639999851,78939.9532999969,10,42,"n",2,"['7', '4', 'space']","n","#000000","no",761850.201799999,2,"bias","psycho","psycho","psycho",0,"uniform",1,0,1,1,NA,1,0,NA,0,0,1,0,65,65,NA,NA,NA,NA,0,1,1,NA,65,1,65,73.2296414732588,"Thu Nov 25 11:40:18 2021","The main experiment item","yes","green","yes","6","circle",NA,"pinging_target_expectations 4.0.osexp","C:\Users\etp-cp-ping\Desktop\LocalPC-EXP",75,"no","mono","no",18,"no","white","no","yes",1050,NA,6,"psycho",9,1,9,"C:/Users/etp-cp-ping/Desktop/LocalPC-EXP/subject-21.csv","psycho",5,66,10,"Lentiform Loewenfeld","3.3.8","['hori', 'vert', 'hori', 'vert', 'vert', 'vert', 'hori', 'hori']","yes",106,"diamond","no",0,NA,2,"legacy",NA,1024,2,48000,-16,"experiment",21,"odd","red","no",0,"diamond",438823.1605,695969.7989,695969.8471,NA,717692.1608,NA,NA,133404.7142,1359.8422,625010.0994,133404.7385,763575.8074,766744.219799999,NA,NA,NA,NA,1359.92229999965,738235.5025,624502.4745,NA,763575.8218,738605.5925,763575.7585,"New experiment",19,"[0]","dist_present",56,17,"yes","yes",1680,-28.580145877944,-0.305348367237749,"more toward","False","NR","NR","hp","Right",NA,"Right",NA,-2,0,"first",6,"NR","in"
"67",746.011400000541,9641.21779999905,79685.9646999974,11,43,"n",2,"['7', '4', 'space']","n","#000000","no",761850.201799999,2,"bias","psycho","psycho","psycho",0,"uniform",1,0,1,1,NA,1,0,NA,0,0,1,0,66,66,NA,NA,NA,NA,0,1,1,NA,66,1,66,73.2296414732588,"Thu Nov 25 11:40:18 2021","The main experiment item","yes","green","no","4","diamond",NA,"pinging_target_expectations 4.0.osexp","C:\Users\etp-cp-ping\Desktop\LocalPC-EXP",75,"no","mono","no",18,"no","white","no","yes",1050,NA,6,"psycho",10,1,10,"C:/Users/etp-cp-ping/Desktop/LocalPC-EXP/subject-21.csv","psycho",5,67,11,"Lentiform Loewenfeld","3.3.8","['hori', 'hori', 'vert', 'vert', 'hori', 'vert', 'vert', 'hori']","yes",106,"circles","no",0,NA,2,"legacy",NA,1024,2,48000,-16,"experiment",21,"odd","red","yes",6,"circle",438823.1605,695969.7989,695969.8471,NA,717692.1608,NA,NA,133404.7142,1359.8422,625010.0994,133404.7385,766776.8018,769592.2332,NA,NA,NA,NA,1359.92229999965,738235.5025,624502.4745,NA,766776.816,738605.5925,766776.752499999,"New experiment",19,"[0]","dist_present",56,75,"yes","yes",1680,-19.7655208779439,-1.79934836723777,"more toward","False","NR","NR","lp",NA,"Right",NA,"Right",0,2,"first",0,"NR","ex"
"68",943.164999999688,10584.3827999987,80629.1296999971,12,44,"n",2,"['7', '4', 'space']","n","#000000","no",761850.201799999,2,"bias","psycho","psycho","psycho",0,"uniform",1,0,1,1,NA,1,0,NA,0,0,1,0,67,67,NA,NA,NA,NA,0,1,1,NA,67,1,67,73.2296414732588,"Thu Nov 25 11:40:18 2021","The main experiment item","yes","red","no","7","diamond",NA,"pinging_target_expectations 4.0.osexp","C:\Users\etp-cp-ping\Desktop\LocalPC-EXP",75,"no","mono","no",18,"no","white","no","yes",1050,NA,6,"psycho",11,1,11,"C:/Users/etp-cp-ping/Desktop/LocalPC-EXP/subject-21.csv","psycho",5,68,12,"Lentiform Loewenfeld","3.3.8","['vert', 'hori', 'hori', 'vert', 'hori', 'vert', 'hori', 'vert']","yes",106,"diamond","no",0,NA,2,"legacy",NA,1024,2,48000,-16,"experiment",21,"odd","green","yes",6,"circle",438823.1605,695969.7989,695969.8471,NA,717692.1608,NA,NA,133404.7142,1359.8422,625010.0994,133404.7385,769623.0109,772600.175399999,NA,NA,NA,NA,1359.92229999965,738235.5025,624502.4745,NA,769623.0254,738605.5925,769622.9594,"New experiment",19,"[0]","dist_present",56,78,"yes","yes",1680,-16.641270877944,15.2397141327623,"more toward","False","R","NR","hp",NA,NA,NA,NA,0,-1,"first",6,"NR","ex"
