"","X.2","X.1","X","RT","RT_bl","RT_tot","acc_bl","acc_tot","background","bidi","block_cnt","block_type","canvas_backend","clock_backend","color_backend","compensation","coordinates","correct","count_block_loop","count_block_seq","count_block_settings","count_check_session","count_drift_correct","count_exp_settings","count_experiment","count_feedback","count_instructions","count_log_variables","count_logger","count_new_pygaze_drift_correct","count_new_pygaze_start_recording","count_new_pygaze_stop_recording","count_pygaze","count_start_recording","count_stop_recording","count_test_location","count_trial","count_trial_loop","count_trial_seq","d_eye","datetime","description","disable_garbage_collection","dist_color","dist_high","dist_loc","dist_shape","empty_column","experiment_file","experiment_path","font_bold","font_family","font_italic","font_size","font_underline","foreground","form_clicks","fullscreen","height","high_loc","high_prob_loc","keyboard_backend","live_row","live_row_block_loop","live_row_trial_loop","logfile","mouse_backend","nr_blinks","nr_trials","nr_trials_bl","opensesame_codename","opensesame_version","orient_list_trial","ping","ping_trigger","ping_type","practice","repeat_cycle","response","round_decimals","sampler_backend","session_nr","sound_buf_size","sound_channels","sound_freq","sound_sample_size","start","subject_nr","subject_parity","target_color","target_high","target_loc","target_shape","time_block_loop","time_block_seq","time_block_settings","time_check_session","time_drift_correct","time_exp_settings","time_experiment","time_feedback","time_instructions","time_log_variables","time_logger","time_new_pygaze_drift_correct","time_new_pygaze_start_recording","time_new_pygaze_stop_recording","time_pygaze","time_start_recording","time_stop_recording","time_test_location","time_trial","time_trial_loop","time_trial_seq","title","total_blocks","trial_type","trials_in_block","trigger","uniform_coordinates","update_blinks","width","x","y","toward","containsNaN","rept","repd","prevtar","pd","nt","pd_c","nt_c","tar_dist","dist_dist","prevHP","eegTar","repteeg","tarcounter"
"1",57,57,57,1296.0883,1296.0883,80164.1238,1,39,"#000000","no",2,"bias","psycho","psycho","psycho",0,"uniform",1,0,1,1,NA,1,0,0,1,0,56,56,NA,NA,NA,0,1,1,NA,56,1,56,82.99359367,"12/14/20 12:50:32","The main experiment item","yes","green","no","3","diamond",NA,"pinging_target_expectations.osexp","C:\Users\etp-cp-ping\Desktop\DATA\data","no","mono","no",18,"no","white","no","yes",1050,NA,0,"psycho",0,1,0,"C:/Users/etp-cp-ping/Desktop/DATA/data/subject-2.csv","psycho",0,57,1,"Kafkaesque Koffka","3.2.8","['vert', 'hori', 'vert', 'vert', 'hori', 'hori', 'vert', 'hori']","no",200,"None","no",0,NA,2,"legacy",NA,1024,2,48000,-16,"experiment",2,"even","red","no",2,"circle",141500.7695,422721.1047,422721.2623,NA,432201.8775,37185.2591,1379.6852,335528.8452,37185.2902,433545.8966,436646.0795,NA,NA,NA,1380.7122,433034.2643,335019.1879,NA,433545.9143,433538.5439,433545.8446,"New experiment",19,"dist_present",56,34,"yes","yes",1680,-13.6089005128208,-5.10576628205108,"more toward","False","NR","NR","lp",NA,NA,NA,NA,-2,-3,"first",999,"NR","in"
"2",58,58,58,1856.5694,3152.6577,82020.6932,2,40,"#000000","no",2,"bias","psycho","psycho","psycho",0,"uniform",1,0,1,1,NA,1,0,0,1,0,57,57,NA,NA,NA,0,1,1,NA,57,1,57,82.99359367,"12/14/20 12:50:32","The main experiment item","yes","green","no","2","diamond",NA,"pinging_target_expectations.osexp","C:\Users\etp-cp-ping\Desktop\DATA\data","no","mono","no",18,"no","white","no","yes",1050,NA,0,"psycho",1,1,1,"C:/Users/etp-cp-ping/Desktop/DATA/data/subject-2.csv","psycho",0,58,2,"Kafkaesque Koffka","3.2.8","['vert', 'hori', 'vert', 'vert', 'hori', 'hori', 'hori', 'vert']","no",200,"None","no",0,NA,2,"legacy",NA,1024,2,48000,-16,"experiment",2,"even","red","no",5,"circle",141500.7695,422721.1047,422721.2623,NA,432201.8775,37185.2591,1379.6852,335528.8452,37185.2902,436676.5208,440406.139,NA,NA,NA,1380.7122,433034.2643,335019.1879,NA,436676.5371,433538.5439,436676.4695,"New experiment",19,"dist_present",56,63,"yes","yes",1680,-13.3404005128207,0.125858717948907,"more toward","False","NR","NR","lp",NA,NA,NA,NA,3,-2,"first",2,"NR","in"
"3",59,59,59,1327.7861,4480.4438,83348.4793,3,41,"#000000","no",2,"bias","psycho","psycho","psycho",0,"uniform",1,0,1,1,NA,1,0,0,1,0,58,58,NA,NA,NA,0,1,1,NA,58,1,58,82.99359367,"12/14/20 12:50:32","The main experiment item","yes","red","yes","0","diamond",NA,"pinging_target_expectations.osexp","C:\Users\etp-cp-ping\Desktop\DATA\data","no","mono","no",18,"no","white","no","yes",1050,NA,0,"psycho",2,1,2,"C:/Users/etp-cp-ping/Desktop/DATA/data/subject-2.csv","psycho",0,59,3,"Kafkaesque Koffka","3.2.8","['hori', 'hori', 'hori', 'hori', 'vert', 'vert', 'vert', 'vert']","yes",100,"circles","no",0,NA,2,"legacy",NA,1024,2,48000,-16,"experiment",2,"even","green","no",5,"circle",141500.7695,422721.1047,422721.2623,NA,432201.8775,37185.2591,1379.6852,335528.8452,37185.2902,440436.1895,443870.0612,NA,NA,NA,1380.7122,433034.2643,335019.1879,NA,440436.2062,433538.5439,440436.1365,"New experiment",19,"dist_present",56,61,"yes","yes",1680,-6.3046505128206,-6.5572662820511,"more toward","False","R","NR","lp",NA,"Right",NA,NA,3,0,"first",5,"NR","in"
"4",60,60,60,1247.3694,5727.8132,84595.8487,3,41,"#000000","no",2,"bias","psycho","psycho","psycho",0,"uniform",0,0,1,1,NA,1,0,0,1,0,59,59,NA,NA,NA,0,1,1,NA,59,1,59,82.99359367,"12/14/20 12:50:32","The main experiment item","yes","green","no","7","circle",NA,"pinging_target_expectations.osexp","C:\Users\etp-cp-ping\Desktop\DATA\data","no","mono","no",18,"no","white","no","yes",1050,NA,0,"psycho",3,1,3,"C:/Users/etp-cp-ping/Desktop/DATA/data/subject-2.csv","psycho",0,60,4,"Kafkaesque Koffka","3.2.8","['vert', 'hori', 'hori', 'vert', 'hori', 'vert', 'hori', 'vert']","yes",100,"diamond","no",0,NA,2,"legacy",NA,1024,2,48000,-16,"experiment",2,"even","red","no",3,"diamond",141500.7695,422721.1047,422721.2623,NA,432201.8775,37185.2591,1379.6852,335528.8452,37185.2902,443900.1331,447062.1745,NA,NA,NA,1380.7122,433034.2643,335019.1879,NA,443900.15,433538.5439,443900.0793,"New experiment",19,"dist_present",56,48,"yes","yes",1680,-11.4732755128208,-4.26914128205117,"more toward","False","NR","NR","lp",NA,NA,NA,NA,-3,1,"first",5,"R","in"
"5",61,61,61,1166.9276,6894.7408,85762.7763,4,42,"#000000","no",2,"bias","psycho","psycho","psycho",0,"uniform",1,0,1,1,NA,1,0,0,1,0,60,60,NA,NA,NA,0,1,1,NA,60,1,60,82.99359367,"12/14/20 12:50:32","The main experiment item","yes","green","no","None","diamond",NA,"pinging_target_expectations.osexp","C:\Users\etp-cp-ping\Desktop\DATA\data","no","mono","no",18,"no","white","no","yes",1050,NA,0,"psycho",4,1,4,"C:/Users/etp-cp-ping/Desktop/DATA/data/subject-2.csv","psycho",0,61,5,"Kafkaesque Koffka","3.2.8","['vert', 'vert', 'hori', 'hori', 'hori', 'hori', 'vert', 'vert']","yes",100,"diamond","no",0,NA,2,"legacy",NA,1024,2,48000,-16,"experiment",2,"even","red","no",4,"circle",141500.7695,422721.1047,422721.2623,NA,432201.8775,37185.2591,1379.6852,335528.8452,37185.2902,447092.3419,450326.4564,NA,NA,NA,1380.7122,433034.2643,335019.1879,NA,447092.358,433538.5439,447092.2884,"New experiment",19,"dist_absent",56,59,"yes","yes",1680,-4.35402551282062,-8.16676628205114,"more toward","False","NR","NR","lp",NA,NA,NA,NA,4,NA,"first",3,"NR","in"
"6",62,62,62,1027.4018,7922.1426,86790.1781,5,43,"#000000","no",2,"bias","psycho","psycho","psycho",0,"uniform",1,0,1,1,NA,1,0,0,1,0,61,61,NA,NA,NA,0,1,1,NA,61,1,61,82.99359367,"12/14/20 12:50:32","The main experiment item","yes","red","yes","0","circle",NA,"pinging_target_expectations.osexp","C:\Users\etp-cp-ping\Desktop\DATA\data","no","mono","no",18,"no","white","no","yes",1050,NA,0,"psycho",5,1,5,"C:/Users/etp-cp-ping/Desktop/DATA/data/subject-2.csv","psycho",0,62,6,"Kafkaesque Koffka","3.2.8","['hori', 'vert', 'hori', 'hori', 'vert', 'vert', 'hori', 'vert']","yes",100,"circles","no",0,NA,2,"legacy",NA,1024,2,48000,-16,"experiment",2,"even","green","no",7,"diamond",141500.7695,422721.1047,422721.2623,NA,432201.8775,37185.2591,1379.6852,335528.8452,37185.2902,450355.9538,453405.8911,NA,NA,NA,1380.7122,433034.2643,335019.1879,NA,450355.9706,433538.5439,450355.9008,"New experiment",19,"dist_present",56,81,"yes","yes",1680,-11.8162755128207,11.1837337179489,"more away","False","NR","NR","lp",NA,"Right",NA,NA,1,0,"first",4,"NR","in"
"7",63,63,63,2000.3002,9922.4428,88790.4783,5,43,"#000000","no",2,"bias","psycho","psycho","psycho",0,"uniform",0,0,1,1,NA,1,0,0,1,0,62,62,NA,NA,NA,0,1,1,NA,62,1,62,82.99359367,"12/14/20 12:50:32","The main experiment item","yes","red","no","4","diamond",NA,"pinging_target_expectations.osexp","C:\Users\etp-cp-ping\Desktop\DATA\data","no","mono","no",18,"no","white","no","yes",1050,NA,0,"psycho",6,1,6,"C:/Users/etp-cp-ping/Desktop/DATA/data/subject-2.csv","psycho",0,63,7,"Kafkaesque Koffka","3.2.8","['hori', 'vert', 'vert', 'hori', 'hori', 'vert', 'vert', 'hori']","yes",100,"circles","no",0,NA,2,"legacy",NA,1024,2,48000,-16,"experiment",2,"even","green","no",2,"circle",141500.7695,422721.1047,422721.2623,NA,432201.8775,37185.2591,1379.6852,335528.8452,37185.2902,453435.6424,457518.4981,NA,NA,NA,1380.7122,433034.2643,335019.1879,NA,453435.6592,433538.5439,453435.5889,"New experiment",19,"dist_present",56,35,"yes","yes",1680,-8.99415051282074,-3.08851628205109,"more toward","False","NR","NR","lp",NA,"Left",NA,"Left",-2,4,"first",7,"NR","in"
"8",64,64,64,1418.1319,11340.5747,90208.6102,6,44,"#000000","no",2,"bias","psycho","psycho","psycho",0,"uniform",1,0,1,1,NA,1,0,0,1,0,63,63,NA,NA,NA,0,1,1,NA,63,1,63,82.99359367,"12/14/20 12:50:32","The main experiment item","yes","green","no","None","circle",NA,"pinging_target_expectations.osexp","C:\Users\etp-cp-ping\Desktop\DATA\data","no","mono","no",18,"no","white","no","yes",1050,NA,0,"psycho",7,1,7,"C:/Users/etp-cp-ping/Desktop/DATA/data/subject-2.csv","psycho",0,64,8,"Kafkaesque Koffka","3.2.8","['vert', 'vert', 'hori', 'vert', 'vert', 'hori', 'hori', 'hori']","no",200,"None","no",0,NA,2,"legacy",NA,1024,2,48000,-16,"experiment",2,"even","red","yes",0,"diamond",141500.7695,422721.1047,422721.2623,NA,432201.8775,37185.2591,1379.6852,335528.8452,37185.2902,457548.3907,460789.9987,NA,NA,NA,1380.7122,433034.2643,335019.1879,NA,457548.4073,433538.5439,457548.3383,"New experiment",19,"dist_absent",56,19,"yes","yes",1680,-27.5726505128208,-6.25901628205113,"more toward","False","NR","NR","lp",NA,NA,NA,NA,0,NA,"first",2,"NR","ex"
"9",65,65,65,1086.6565,12427.2312,91295.2667,7,45,"#000000","no",2,"bias","psycho","psycho","psycho",0,"uniform",1,0,1,1,NA,1,0,0,1,0,64,64,NA,NA,NA,0,1,1,NA,64,1,64,82.99359367,"12/14/20 12:50:32","The main experiment item","yes","red","yes","0","circle",NA,"pinging_target_expectations.osexp","C:\Users\etp-cp-ping\Desktop\DATA\data","no","mono","no",18,"no","white","no","yes",1050,NA,0,"psycho",8,1,8,"C:/Users/etp-cp-ping/Desktop/DATA/data/subject-2.csv","psycho",0,65,9,"Kafkaesque Koffka","3.2.8","['hori', 'hori', 'vert', 'vert', 'hori', 'hori', 'vert', 'vert']","yes",100,"diamond","no",0,NA,2,"legacy",NA,1024,2,48000,-16,"experiment",2,"even","green","no",4,"diamond",141500.7695,422721.1047,422721.2623,NA,432201.8775,37185.2591,1379.6852,335528.8452,37185.2902,460820.3237,463678.0791,NA,NA,NA,1380.7122,433034.2643,335019.1879,NA,460820.3405,433538.5439,460820.2703,"New experiment",19,"dist_present",56,51,"yes","yes",1680,-43.1459005128208,7.3873587179489,"more away","False","NR","NR","hp",NA,NA,NA,NA,4,0,"first",0,"NR","in"
"10",66,66,66,1280.911,13708.1422,92576.1777,8,46,"#000000","no",2,"bias","psycho","psycho","psycho",0,"uniform",1,0,1,1,NA,1,0,0,1,0,65,65,NA,NA,NA,0,1,1,NA,65,1,65,82.99359367,"12/14/20 12:50:32","The main experiment item","yes","red","no","1","diamond",NA,"pinging_target_expectations.osexp","C:\Users\etp-cp-ping\Desktop\DATA\data","no","mono","no",18,"no","white","no","yes",1050,NA,0,"psycho",9,1,9,"C:/Users/etp-cp-ping/Desktop/DATA/data/subject-2.csv","psycho",0,66,10,"Kafkaesque Koffka","3.2.8","['hori', 'hori', 'hori', 'hori', 'vert', 'vert', 'vert', 'vert']","yes",100,"circles","no",0,NA,2,"legacy",NA,1024,2,48000,-16,"experiment",2,"even","green","yes",0,"circle",141500.7695,422721.1047,422721.2623,NA,432201.8775,37185.2591,1379.6852,335528.8452,37185.2902,463705.8265,466902.0947,NA,NA,NA,1380.7122,433034.2643,335019.1879,NA,463705.8432,433538.5439,463705.773,"New experiment",19,"dist_present",56,12,"yes","yes",1680,-2.20665051282059,10.0508587179489,"more away","False","NR","NR","lp","Left",NA,NA,NA,0,-1,"first",4,"NR","ex"
"11",67,67,67,988.0209,14696.1631,93564.1986,9,47,"#000000","no",2,"bias","psycho","psycho","psycho",0,"uniform",1,0,1,1,NA,1,0,0,1,0,66,66,NA,NA,NA,0,1,1,NA,66,1,66,82.99359367,"12/14/20 12:50:32","The main experiment item","yes","red","no","None","circle",NA,"pinging_target_expectations.osexp","C:\Users\etp-cp-ping\Desktop\DATA\data","no","mono","no",18,"no","white","no","yes",1050,NA,0,"psycho",10,1,10,"C:/Users/etp-cp-ping/Desktop/DATA/data/subject-2.csv","psycho",0,67,11,"Kafkaesque Koffka","3.2.8","['vert', 'hori', 'vert', 'hori', 'vert', 'hori', 'vert', 'hori']","yes",100,"diamond","no",0,NA,2,"legacy",NA,1024,2,48000,-16,"experiment",2,"even","green","yes",0,"diamond",141500.7695,422721.1047,422721.2623,NA,432201.8775,37185.2591,1379.6852,335528.8452,37185.2902,466932.0982,469733.9685,NA,NA,NA,1380.7122,433034.2643,335019.1879,NA,466932.115,433538.5439,466932.0451,"New experiment",19,"dist_absent",56,19,"yes","yes",1680,-15.2172755128207,-12.2585162820511,"more toward","False","R","NR","hp",NA,NA,NA,NA,0,NA,"first",0,"NR","ex"
"12",68,68,68,672.9149,15369.078,94237.1135,10,48,"#000000","no",2,"bias","psycho","psycho","psycho",0,"uniform",1,0,1,1,NA,1,0,0,1,0,67,67,NA,NA,NA,0,1,1,NA,67,1,67,82.99359367,"12/14/20 12:50:32","The main experiment item","yes","red","no","4","diamond",NA,"pinging_target_expectations.osexp","C:\Users\etp-cp-ping\Desktop\DATA\data","no","mono","no",18,"no","white","no","yes",1050,NA,0,"psycho",11,1,11,"C:/Users/etp-cp-ping/Desktop/DATA/data/subject-2.csv","psycho",0,68,12,"Kafkaesque Koffka","3.2.8","['vert', 'vert', 'hori', 'vert', 'vert', 'hori', 'hori', 'hori']","yes",100,"circles","no",0,NA,2,"legacy",NA,1024,2,48000,-16,"experiment",2,"even","green","no",2,"circle",141500.7695,422721.1047,422721.2623,NA,432201.8775,37185.2591,1379.6852,335528.8452,37185.2902,469763.6379,472525.8804,NA,NA,NA,1380.7122,433034.2643,335019.1879,NA,469763.6545,433538.5439,469763.5824,"New experiment",19,"dist_present",56,35,"yes","yes",1680,-18.4482755128208,-12.3643912820511,"more toward","False","NR","NR","hp",NA,"Left",NA,"Left",-2,4,"first",0,"R","in"
"13",69,69,69,684.2296,16053.3076,94921.3431,10,48,"#000000","no",2,"bias","psycho","psycho","psycho",0,"uniform",0,0,1,1,NA,1,0,0,1,0,68,68,NA,NA,NA,0,1,1,NA,68,1,68,82.99359367,"12/14/20 12:50:32","The main experiment item","yes","green","no","3","circle",NA,"pinging_target_expectations.osexp","C:\Users\etp-cp-ping\Desktop\DATA\data","no","mono","no",18,"no","white","no","yes",1050,NA,0,"psycho",12,1,12,"C:/Users/etp-cp-ping/Desktop/DATA/data/subject-2.csv","psycho",0,69,13,"Kafkaesque Koffka","3.2.8","['hori', 'hori', 'vert', 'vert', 'hori', 'hori', 'vert', 'vert']","no",200,"None","no",0,NA,2,"legacy",NA,1024,2,48000,-16,"experiment",2,"even","red","no",5,"diamond",141500.7695,422721.1047,422721.2623,NA,432201.8775,37185.2591,1379.6852,335528.8452,37185.2902,472555.6463,475238.1273,NA,NA,NA,1380.7122,433034.2643,335019.1879,NA,472555.6626,433538.5439,472555.5941,"New experiment",19,"dist_present",56,64,"yes","yes",1680,-15.9136505128207,-0.329016282051053,"more toward","False","NR","NR","lp",NA,NA,NA,NA,3,-3,"first",2,"NR","in"
"14",70,70,70,1544.9399,17598.2475,96466.283,10,48,"#000000","no",2,"bias","psycho","psycho","psycho",0,"uniform",0,0,1,1,NA,1,0,0,1,0,69,69,NA,NA,NA,0,1,1,NA,69,1,69,82.99359367,"12/14/20 12:50:32","The main experiment item","yes","red","no","2","diamond",NA,"pinging_target_expectations.osexp","C:\Users\etp-cp-ping\Desktop\DATA\data","no","mono","no",18,"no","white","no","yes",1050,NA,0,"psycho",13,1,13,"C:/Users/etp-cp-ping/Desktop/DATA/data/subject-2.csv","psycho",0,70,14,"Kafkaesque Koffka","3.2.8","['hori', 'vert', 'vert', 'hori', 'vert', 'hori', 'hori', 'vert']","yes",100,"circles","no",0,NA,2,"legacy",NA,1024,2,48000,-16,"experiment",2,"even","green","yes",0,"circle",141500.7695,422721.1047,422721.2623,NA,432201.8775,37185.2591,1379.6852,335528.8452,37185.2902,475267.8205,478542.0231,NA,NA,NA,1380.7122,433034.2643,335019.1879,NA,475267.8372,433538.5439,475267.7675,"New experiment",19,"dist_present",56,13,"yes","yes",1680,-8.07352551282074,2.47760871794886,"more toward","False","NR","NR","lp","Left",NA,"Left",NA,0,-2,"first",5,"NR","ex"
"15",71,71,71,857.5136,18455.7611,97323.7966,11,49,"#000000","no",2,"bias","psycho","psycho","psycho",0,"uniform",1,0,1,1,NA,1,0,0,1,0,70,70,NA,NA,NA,0,1,1,NA,70,1,70,82.99359367,"12/14/20 12:50:32","The main experiment item","yes","green","no","3","circle",NA,"pinging_target_expectations.osexp","C:\Users\etp-cp-ping\Desktop\DATA\data","no","mono","no",18,"no","white","no","yes",1050,NA,0,"psycho",14,1,14,"C:/Users/etp-cp-ping/Desktop/DATA/data/subject-2.csv","psycho",0,71,15,"Kafkaesque Koffka","3.2.8","['hori', 'vert', 'hori', 'vert', 'hori', 'vert', 'hori', 'vert']","no",200,"None","no",0,NA,2,"legacy",NA,1024,2,48000,-16,"experiment",2,"even","red","no",6,"diamond",141500.7695,422721.1047,422721.2623,NA,432201.8775,37185.2591,1379.6852,335528.8452,37185.2902,478571.9857,481293.9089,NA,NA,NA,1380.7122,433034.2643,335019.1879,NA,478572.0028,433538.5439,478571.9326,"New experiment",19,"dist_present",56,74,"yes","yes",1680,0.470349487179248,1.34698371794886,"more toward","False","NR","NR","hp",NA,NA,NA,NA,2,-3,"first",0,"NR","in"
"16",72,72,72,1427.6689,19883.43,98751.4655,12,50,"#000000","no",2,"bias","psycho","psycho","psycho",0,"uniform",1,0,1,1,NA,1,0,0,1,0,71,71,NA,NA,NA,0,1,1,NA,71,1,71,82.99359367,"12/14/20 12:50:32","The main experiment item","yes","red","no","5","diamond",NA,"pinging_target_expectations.osexp","C:\Users\etp-cp-ping\Desktop\DATA\data","no","mono","no",18,"no","white","no","yes",1050,NA,0,"psycho",15,1,15,"C:/Users/etp-cp-ping/Desktop/DATA/data/subject-2.csv","psycho",0,72,16,"Kafkaesque Koffka","3.2.8","['vert', 'vert', 'vert', 'hori', 'hori', 'hori', 'hori', 'vert']","no",200,"None","no",0,NA,2,"legacy",NA,1024,2,48000,-16,"experiment",2,"even","green","no",3,"circle",141500.7695,422721.1047,422721.2623,NA,432201.8775,37185.2591,1379.6852,335528.8452,37185.2902,481323.5907,484638.2777,NA,NA,NA,1380.7122,433034.2643,335019.1879,NA,481323.6076,433538.5439,481323.5365,"New experiment",19,"dist_present",56,46,"yes","yes",1680,9.92072448717914,20.1956087179489,"more away","False","NR","NR","lp",NA,NA,NA,NA,-3,3,"first",6,"NR","in"
"17",73,73,73,852.0871,20735.5171,99603.5526,13,51,"#000000","no",2,"bias","psycho","psycho","psycho",0,"uniform",1,0,1,1,NA,1,0,0,1,0,72,72,NA,NA,NA,0,1,1,NA,72,1,72,82.99359367,"12/14/20 12:50:32","The main experiment item","yes","red","no","4","circle",NA,"pinging_target_expectations.osexp","C:\Users\etp-cp-ping\Desktop\DATA\data","no","mono","no",18,"no","white","no","yes",1050,NA,0,"psycho",16,1,16,"C:/Users/etp-cp-ping/Desktop/DATA/data/subject-2.csv","psycho",0,73,17,"Kafkaesque Koffka","3.2.8","['vert', 'vert', 'hori', 'hori', 'vert', 'vert', 'hori', 'hori']","yes",100,"circles","no",0,NA,2,"legacy",NA,1024,2,48000,-16,"experiment",2,"even","green","yes",0,"diamond",141500.7695,422721.1047,422721.2623,NA,432201.8775,37185.2591,1379.6852,335528.8452,37185.2902,484669.1081,487405.9181,NA,NA,NA,1380.7122,433034.2643,335019.1879,NA,484669.1255,433538.5439,484669.0484,"New experiment",19,"dist_present",56,15,"yes","yes",1680,5.41397448717927,10.8559837179489,"more away","False","NR","NR","lp",NA,NA,NA,NA,0,4,"first",3,"NR","ex"
"18",74,74,74,1849.3784,22584.8955,101452.931,14,52,"#000000","no",2,"bias","psycho","psycho","psycho",0,"uniform",1,0,1,1,NA,1,0,0,1,0,73,73,NA,NA,NA,0,1,1,NA,73,1,73,82.99359367,"12/14/20 12:50:32","The main experiment item","yes","green","no","None","diamond",NA,"pinging_target_expectations.osexp","C:\Users\etp-cp-ping\Desktop\DATA\data","no","mono","no",18,"no","white","no","yes",1050,NA,0,"psycho",17,1,17,"C:/Users/etp-cp-ping/Desktop/DATA/data/subject-2.csv","psycho",0,74,18,"Kafkaesque Koffka","3.2.8","['vert', 'hori', 'vert', 'hori', 'hori', 'vert', 'hori', 'vert']","yes",100,"circles","no",0,NA,2,"legacy",NA,1024,2,48000,-16,"experiment",2,"even","red","yes",0,"circle",141500.7695,422721.1047,422721.2623,NA,432201.8775,37185.2591,1379.6852,335528.8452,37185.2902,487435.5349,491214.4479,NA,NA,NA,1380.7122,433034.2643,335019.1879,NA,487435.5512,433538.5439,487435.4819,"New experiment",19,"dist_absent",56,19,"yes","yes",1680,-0.698275512820784,-5.05901628205112,"more toward","False","R","NR","hp",NA,NA,NA,NA,0,NA,"first",0,"NR","ex"
"19",75,75,75,1074.0288,23658.9243,102526.9598,15,53,"#000000","no",2,"bias","psycho","psycho","psycho",0,"uniform",1,0,1,1,NA,1,0,0,1,0,74,74,NA,NA,NA,0,1,1,NA,74,1,74,82.99359367,"12/14/20 12:50:32","The main experiment item","yes","green","no","6","circle",NA,"pinging_target_expectations.osexp","C:\Users\etp-cp-ping\Desktop\DATA\data","no","mono","no",18,"no","white","no","yes",1050,NA,0,"psycho",18,1,18,"C:/Users/etp-cp-ping/Desktop/DATA/data/subject-2.csv","psycho",0,75,19,"Kafkaesque Koffka","3.2.8","['vert', 'vert', 'vert', 'hori', 'hori', 'vert', 'hori', 'hori']","yes",100,"diamond","no",0,NA,2,"legacy",NA,1024,2,48000,-16,"experiment",2,"even","red","no",3,"diamond",141500.7695,422721.1047,422721.2623,NA,432201.8775,37185.2591,1379.6852,335528.8452,37185.2902,491244.1208,494021.9801,NA,NA,NA,1380.7122,433034.2643,335019.1879,NA,491244.1378,433538.5439,491244.0679,"New experiment",19,"dist_present",56,47,"yes","yes",1680,-0.233900512820788,6.20260871794893,"more toward","False","NR","NR","hp",NA,NA,NA,NA,-3,2,"first",0,"R","in"
"20",76,76,76,2000.438,25659.3623,104527.3978,15,53,"#000000","no",2,"bias","psycho","psycho","psycho",0,"uniform",0,0,1,1,NA,1,0,0,1,0,75,75,NA,NA,NA,0,1,1,NA,75,1,75,82.99359367,"12/14/20 12:50:32","The main experiment item","yes","red","no","None","circle",NA,"pinging_target_expectations.osexp","C:\Users\etp-cp-ping\Desktop\DATA\data","no","mono","no",18,"no","white","no","yes",1050,NA,0,"psycho",19,1,19,"C:/Users/etp-cp-ping/Desktop/DATA/data/subject-2.csv","psycho",1,76,20,"Kafkaesque Koffka","3.2.8","['vert', 'vert', 'hori', 'hori', 'vert', 'hori', 'hori', 'vert']","no",200,"None","no",0,NA,2,"legacy",NA,1024,2,48000,-16,"experiment",2,"even","green","no",1,"diamond",141500.7695,422721.1047,422721.2623,NA,432201.8775,37185.2591,1379.6852,335528.8452,37185.2902,494051.9375,497949.076,NA,NA,NA,1380.7122,433034.2643,335019.1879,NA,494051.954,433538.5439,494051.885,"New experiment",19,"dist_absent",56,29,"yes","no",1680,-17.3097755128207,10.4974837179489,"more away","False","NR","NR","lp",NA,"Left",NA,NA,-1,NA,"first",3,"NR","in"
"21",77,77,77,1279.8938,26939.2561,105807.2916,16,54,"#000000","no",2,"bias","psycho","psycho","psycho",0,"uniform",1,0,1,1,NA,1,0,0,1,0,76,76,NA,NA,NA,0,1,1,NA,76,1,76,82.99359367,"12/14/20 12:50:32","The main experiment item","yes","green","no","1","diamond",NA,"pinging_target_expectations.osexp","C:\Users\etp-cp-ping\Desktop\DATA\data","no","mono","no",18,"no","white","no","yes",1050,NA,0,"psycho",20,1,20,"C:/Users/etp-cp-ping/Desktop/DATA/data/subject-2.csv","psycho",1,77,21,"Kafkaesque Koffka","3.2.8","['hori', 'hori', 'hori', 'vert', 'vert', 'hori', 'vert', 'vert']","yes",100,"circles","no",0,NA,2,"legacy",NA,1024,2,48000,-16,"experiment",2,"even","red","yes",0,"circle",141500.7695,422721.1047,422721.2623,NA,432201.8775,37185.2591,1379.6852,335528.8452,37185.2902,497978.8142,501190.612,NA,NA,NA,1380.7122,433034.2643,335019.1879,NA,497978.831,433538.5439,497978.7621,"New experiment",19,"dist_present",56,12,"yes","yes",1680,-7.90102551282075,22.6198587179489,"more away","False","NR","NR","lp","Left",NA,NA,NA,0,-1,"first",1,"NR","ex"
"22",78,78,78,1725.7847,28665.0408,107533.0763,17,55,"#000000","no",2,"bias","psycho","psycho","psycho",0,"uniform",1,0,1,1,NA,1,0,0,1,0,77,77,NA,NA,NA,0,1,1,NA,77,1,77,82.99359367,"12/14/20 12:50:32","The main experiment item","yes","red","no","7","circle",NA,"pinging_target_expectations.osexp","C:\Users\etp-cp-ping\Desktop\DATA\data","no","mono","no",18,"no","white","no","yes",1050,NA,0,"psycho",21,1,21,"C:/Users/etp-cp-ping/Desktop/DATA/data/subject-2.csv","psycho",1,78,22,"Kafkaesque Koffka","3.2.8","['vert', 'hori', 'hori', 'hori', 'vert', 'vert', 'vert', 'hori']","no",200,"None","no",0,NA,2,"legacy",NA,1024,2,48000,-16,"experiment",2,"even","green","no",6,"diamond",141500.7695,422721.1047,422721.2623,NA,432201.8775,37185.2591,1379.6852,335528.8452,37185.2902,501220.4505,504814.0463,NA,NA,NA,1380.7122,433034.2643,335019.1879,NA,501220.4676,433538.5439,501220.3973,"New experiment",19,"dist_present",56,78,"yes","yes",1680,-7.35252551282068,2.86660871794888,"more toward","False","NR","NR","hp",NA,NA,NA,NA,2,1,"first",0,"NR","in"
"23",79,79,79,1338.6502,30003.691,108871.7265,18,56,"#000000","no",2,"bias","psycho","psycho","psycho",0,"uniform",1,0,1,1,NA,1,0,0,1,0,78,78,NA,NA,NA,0,1,1,NA,78,1,78,82.99359367,"12/14/20 12:50:32","The main experiment item","yes","red","no","2","circle",NA,"pinging_target_expectations.osexp","C:\Users\etp-cp-ping\Desktop\DATA\data","no","mono","no",18,"no","white","no","yes",1050,NA,0,"psycho",22,1,22,"C:/Users/etp-cp-ping/Desktop/DATA/data/subject-2.csv","psycho",1,79,23,"Kafkaesque Koffka","3.2.8","['vert', 'vert', 'hori', 'vert', 'hori', 'hori', 'hori', 'vert']","no",200,"None","no",0,NA,2,"legacy",NA,1024,2,48000,-16,"experiment",2,"even","green","no",1,"diamond",141500.7695,422721.1047,422721.2623,NA,432201.8775,37185.2591,1379.6852,335528.8452,37185.2902,504843.5126,508278.5564,NA,NA,NA,1380.7122,433034.2643,335019.1879,NA,504843.5293,433538.5439,504843.4595,"New experiment",19,"dist_present",56,23,"yes","yes",1680,-10.1414005128208,11.6456087179489,"more away","False","NR","NR","lp",NA,NA,NA,NA,-1,-2,"first",6,"NR","in"
"24",80,80,80,1342.4508,31346.1418,110214.1773,19,57,"#000000","no",2,"bias","psycho","psycho","psycho",0,"uniform",1,0,1,1,NA,1,0,0,1,0,79,79,NA,NA,NA,0,1,1,NA,79,1,79,82.99359367,"12/14/20 12:50:32","The main experiment item","yes","red","no","5","diamond",NA,"pinging_target_expectations.osexp","C:\Users\etp-cp-ping\Desktop\DATA\data","no","mono","no",18,"no","white","no","yes",1050,NA,0,"psycho",23,1,23,"C:/Users/etp-cp-ping/Desktop/DATA/data/subject-2.csv","psycho",1,80,24,"Kafkaesque Koffka","3.2.8","['hori', 'vert', 'hori', 'vert', 'vert', 'hori', 'vert', 'hori']","no",200,"None","no",0,NA,2,"legacy",NA,1024,2,48000,-16,"experiment",2,"even","green","yes",0,"circle",141500.7695,422721.1047,422721.2623,NA,432201.8775,37185.2591,1379.6852,335528.8452,37185.2902,508308.2979,511678.3049,NA,NA,NA,1380.7122,433034.2643,335019.1879,NA,508308.3146,433538.5439,508308.2446,"New experiment",19,"dist_present",56,16,"yes","yes",1680,-11.8727755128206,6.2533587179489,"more toward","False","NR","NR","lp","Right",NA,NA,NA,0,3,"first",1,"NR","ex"
"25",81,81,81,1309.2684,32655.4102,111523.4457,20,58,"#000000","no",2,"bias","psycho","psycho","psycho",0,"uniform",1,0,1,1,NA,1,0,0,1,0,80,80,NA,NA,NA,0,1,1,NA,80,1,80,82.99359367,"12/14/20 12:50:32","The main experiment item","yes","green","no","None","diamond",NA,"pinging_target_expectations.osexp","C:\Users\etp-cp-ping\Desktop\DATA\data","no","mono","no",18,"no","white","no","yes",1050,NA,0,"psycho",24,1,24,"C:/Users/etp-cp-ping/Desktop/DATA/data/subject-2.csv","psycho",1,81,25,"Kafkaesque Koffka","3.2.8","['hori', 'vert', 'vert', 'vert', 'hori', 'vert', 'hori', 'hori']","no",200,"None","no",0,NA,2,"legacy",NA,1024,2,48000,-16,"experiment",2,"even","red","no",4,"circle",141500.7695,422721.1047,422721.2623,NA,432201.8775,37185.2591,1379.6852,335528.8452,37185.2902,511708.3356,514949.8716,NA,NA,NA,1380.7122,433034.2643,335019.1879,NA,511708.3522,433538.5439,511708.2818,"New experiment",19,"dist_absent",56,59,"yes","yes",1680,-11.4720255128208,8.96435871794889,"more away","False","NR","NR","hp",NA,NA,NA,NA,4,NA,"first",0,"NR","in"
"26",82,82,82,1003.1519,33658.5621,112526.5976,21,59,"#000000","no",2,"bias","psycho","psycho","psycho",0,"uniform",1,0,1,1,NA,1,0,0,1,0,81,81,NA,NA,NA,0,1,1,NA,81,1,81,82.99359367,"12/14/20 12:50:32","The main experiment item","yes","green","no","6","diamond",NA,"pinging_target_expectations.osexp","C:\Users\etp-cp-ping\Desktop\DATA\data","no","mono","no",18,"no","white","no","yes",1050,NA,0,"psycho",25,1,25,"C:/Users/etp-cp-ping/Desktop/DATA/data/subject-2.csv","psycho",1,82,26,"Kafkaesque Koffka","3.2.8","['vert', 'vert', 'hori', 'hori', 'hori', 'vert', 'hori', 'vert']","yes",100,"diamond","no",0,NA,2,"legacy",NA,1024,2,48000,-16,"experiment",2,"even","red","no",5,"circle",141500.7695,422721.1047,422721.2623,NA,432201.8775,37185.2591,1379.6852,335528.8452,37185.2902,514979.6944,517781.9078,NA,NA,NA,1380.7122,433034.2643,335019.1879,NA,514979.7108,433538.5439,514979.6426,"New experiment",19,"dist_present",56,67,"yes","yes",1680,-2.27540051282072,-6.76951628205108,"more toward","False","NR","NR","lp",NA,NA,NA,NA,3,2,"first",4,"NR","in"
"27",83,83,83,878.5497,34537.1118,113405.1473,22,60,"#000000","no",2,"bias","psycho","psycho","psycho",0,"uniform",1,0,1,1,NA,1,0,0,1,0,82,82,NA,NA,NA,0,1,1,NA,82,1,82,82.99359367,"12/14/20 12:50:32","The main experiment item","yes","green","no","None","diamond",NA,"pinging_target_expectations.osexp","C:\Users\etp-cp-ping\Desktop\DATA\data","no","mono","no",18,"no","white","no","yes",1050,NA,0,"psycho",26,1,26,"C:/Users/etp-cp-ping/Desktop/DATA/data/subject-2.csv","psycho",1,83,27,"Kafkaesque Koffka","3.2.8","['hori', 'vert', 'hori', 'hori', 'hori', 'vert', 'vert', 'vert']","no",200,"None","no",0,NA,2,"legacy",NA,1024,2,48000,-16,"experiment",2,"even","red","yes",0,"circle",141500.7695,422721.1047,422721.2623,NA,432201.8775,37185.2591,1379.6852,335528.8452,37185.2902,517811.9931,520318.3027,NA,NA,NA,1380.7122,433034.2643,335019.1879,NA,517812.0099,433538.5439,517811.9401,"New experiment",19,"dist_absent",56,19,"yes","yes",1680,-18.7180255128207,-17.3752662820511,"more toward","False","NR","NR","lp",NA,NA,NA,NA,0,NA,"first",5,"NR","ex"
"28",84,84,84,1924.2029,36461.3147,115329.3502,23,61,"#000000","no",2,"bias","psycho","psycho","psycho",0,"uniform",1,0,1,1,NA,1,0,0,1,0,83,83,NA,NA,NA,0,1,1,NA,83,1,83,82.99359367,"12/14/20 12:50:32","The main experiment item","yes","green","no","None","diamond",NA,"pinging_target_expectations.osexp","C:\Users\etp-cp-ping\Desktop\DATA\data","no","mono","no",18,"no","white","no","yes",1050,NA,0,"psycho",27,1,27,"C:/Users/etp-cp-ping/Desktop/DATA/data/subject-2.csv","psycho",1,84,28,"Kafkaesque Koffka","3.2.8","['hori', 'vert', 'vert', 'hori', 'vert', 'hori', 'hori', 'vert']","no",200,"None","no",0,NA,2,"legacy",NA,1024,2,48000,-16,"experiment",2,"even","red","no",6,"circle",141500.7695,422721.1047,422721.2623,NA,432201.8775,37185.2591,1379.6852,335528.8452,37185.2902,520349.376,524133.9726,NA,NA,NA,1380.7122,433034.2643,335019.1879,NA,520349.393,433538.5439,520349.3221,"New experiment",19,"dist_absent",56,79,"yes","yes",1680,-7.60315051282068,13.9701087179488,"more away","False","NR","R","hp",NA,"Right",NA,"Right",2,NA,"first",0,"NR","in"
"29",85,85,85,1227.3685,37688.6832,116556.7187,24,62,"#000000","no",2,"bias","psycho","psycho","psycho",0,"uniform",1,0,1,1,NA,1,0,0,1,0,84,84,NA,NA,NA,0,1,1,NA,84,1,84,82.99359367,"12/14/20 12:50:32","The main experiment item","yes","red","no","None","circle",NA,"pinging_target_expectations.osexp","C:\Users\etp-cp-ping\Desktop\DATA\data","no","mono","no",18,"no","white","no","yes",1050,NA,0,"psycho",28,1,28,"C:/Users/etp-cp-ping/Desktop/DATA/data/subject-2.csv","psycho",2,85,29,"Kafkaesque Koffka","3.2.8","['hori', 'vert', 'hori', 'vert', 'vert', 'hori', 'vert', 'hori']","no",200,"None","no",0,NA,2,"legacy",NA,1024,2,48000,-16,"experiment",2,"even","green","no",1,"diamond",141500.7695,422721.1047,422721.2623,NA,432201.8775,37185.2591,1379.6852,335528.8452,37185.2902,524163.6475,527262.0896,NA,NA,NA,1380.7122,433034.2643,335019.1879,NA,524163.664,433538.5439,524163.5953,"New experiment",19,"dist_absent",56,29,"yes","no",1680,9.96897448717926,13.5009837179489,"more away","False","NR","R","lp",NA,"Left",NA,NA,-1,NA,"first",6,"NR","in"
"30",86,86,86,973.2045,38661.8877,117529.9232,25,63,"#000000","no",2,"bias","psycho","psycho","psycho",0,"uniform",1,0,1,1,NA,1,0,0,1,0,85,85,NA,NA,NA,0,1,1,NA,85,1,85,82.99359367,"12/14/20 12:50:32","The main experiment item","yes","red","no","4","diamond",NA,"pinging_target_expectations.osexp","C:\Users\etp-cp-ping\Desktop\DATA\data","no","mono","no",18,"no","white","no","yes",1050,NA,0,"psycho",29,1,29,"C:/Users/etp-cp-ping/Desktop/DATA/data/subject-2.csv","psycho",2,86,30,"Kafkaesque Koffka","3.2.8","['vert', 'hori', 'vert', 'hori', 'hori', 'vert', 'vert', 'hori']","no",200,"None","no",0,NA,2,"legacy",NA,1024,2,48000,-16,"experiment",2,"even","green","no",2,"circle",141500.7695,422721.1047,422721.2623,NA,432201.8775,37185.2591,1379.6852,335528.8452,37185.2902,527292.3552,530125.8748,NA,NA,NA,1380.7122,433034.2643,335019.1879,NA,527292.372,433538.5439,527292.3015,"New experiment",19,"dist_present",56,35,"yes","yes",1680,13.9087244871792,5.13385871794887,"more toward","False","NR","NR","lp",NA,"Left",NA,"Left",-2,4,"first",1,"NR","in"
"31",87,87,87,1032.4768,39694.3645,118562.4,26,64,"#000000","no",2,"bias","psycho","psycho","psycho",0,"uniform",1,0,1,1,NA,1,0,0,1,0,86,86,NA,NA,NA,0,1,1,NA,86,1,86,82.99359367,"12/14/20 12:50:32","The main experiment item","yes","red","no","1","circle",NA,"pinging_target_expectations.osexp","C:\Users\etp-cp-ping\Desktop\DATA\data","no","mono","no",18,"no","white","no","yes",1050,NA,0,"psycho",30,1,30,"C:/Users/etp-cp-ping/Desktop/DATA/data/subject-2.csv","psycho",2,87,31,"Kafkaesque Koffka","3.2.8","['hori', 'hori', 'vert', 'vert', 'vert', 'hori', 'hori', 'vert']","no",200,"None","no",0,NA,2,"legacy",NA,1024,2,48000,-16,"experiment",2,"even","green","no",7,"diamond",141500.7695,422721.1047,422721.2623,NA,432201.8775,37185.2591,1379.6852,335528.8452,37185.2902,530155.8967,532934.0827,NA,NA,NA,1380.7122,433034.2643,335019.1879,NA,530155.9137,433538.5439,530155.8436,"New experiment",19,"dist_present",56,82,"yes","yes",1680,15.6508494871793,-11.5540162820511,"more toward","False","NR","NR","lp",NA,NA,NA,NA,1,-1,"first",2,"NR","in"
"32",88,88,88,1083.2507,40777.6152,119645.6507,26,64,"#000000","no",2,"bias","psycho","psycho","psycho",0,"uniform",0,0,1,1,NA,1,0,0,1,0,87,87,NA,NA,NA,0,1,1,NA,87,1,87,82.99359367,"12/14/20 12:50:32","The main experiment item","yes","red","no","3","diamond",NA,"pinging_target_expectations.osexp","C:\Users\etp-cp-ping\Desktop\DATA\data","no","mono","no",18,"no","white","no","yes",1050,NA,0,"psycho",31,1,31,"C:/Users/etp-cp-ping/Desktop/DATA/data/subject-2.csv","psycho",2,88,32,"Kafkaesque Koffka","3.2.8","['vert', 'hori', 'vert', 'hori', 'hori', 'vert', 'hori', 'vert']","no",200,"None","no",0,NA,2,"legacy",NA,1024,2,48000,-16,"experiment",2,"even","green","yes",0,"circle",141500.7695,422721.1047,422721.2623,NA,432201.8775,37185.2591,1379.6852,335528.8452,37185.2902,532964.06,536038.1345,NA,NA,NA,1380.7122,433034.2643,335019.1879,NA,532964.0767,433538.5439,532964.0072,"New experiment",19,"dist_present",56,14,"yes","yes",1680,-3.32590051282074,13.6423587179489,"more away","False","NR","NR","lp","Left",NA,NA,NA,0,-3,"first",7,"NR","ex"
"33",89,89,89,1908.0229,42685.6381,121553.6736,26,64,"#000000","no",2,"bias","psycho","psycho","psycho",0,"uniform",0,0,1,1,NA,1,0,0,1,0,88,88,NA,NA,NA,0,1,1,NA,88,1,88,82.99359367,"12/14/20 12:50:32","The main experiment item","yes","red","no","7","circle",NA,"pinging_target_expectations.osexp","C:\Users\etp-cp-ping\Desktop\DATA\data","no","mono","no",18,"no","white","no","yes",1050,NA,0,"psycho",32,1,32,"C:/Users/etp-cp-ping/Desktop/DATA/data/subject-2.csv","psycho",3,89,33,"Kafkaesque Koffka","3.2.8","['vert', 'vert', 'hori', 'hori', 'hori', 'vert', 'vert', 'hori']","no",200,"None","no",0,NA,2,"legacy",NA,1024,2,48000,-16,"experiment",2,"even","green","yes",0,"diamond",141500.7695,422721.1047,422721.2623,NA,432201.8775,37185.2591,1379.6852,335528.8452,37185.2902,536068.3195,539813.9078,NA,NA,NA,1380.7122,433034.2643,335019.1879,NA,536068.3362,433538.5439,536068.2665,"New experiment",19,"dist_present",56,18,"yes","no",1680,0.811349487179313,13.1729837179489,"more away","False","R","NR","hp","Right",NA,NA,NA,0,1,"first",0,"NR","ex"
"34",90,90,90,2000.5679,44686.206,123554.2415,26,64,"#000000","no",2,"bias","psycho","psycho","psycho",0,"uniform",0,0,1,1,NA,1,0,0,1,0,89,89,NA,NA,NA,0,1,1,NA,89,1,89,82.99359367,"12/14/20 12:50:32","The main experiment item","yes","green","no","None","diamond",NA,"pinging_target_expectations.osexp","C:\Users\etp-cp-ping\Desktop\DATA\data","no","mono","no",18,"no","white","no","yes",1050,NA,0,"psycho",33,1,33,"C:/Users/etp-cp-ping/Desktop/DATA/data/subject-2.csv","psycho",3,90,34,"Kafkaesque Koffka","3.2.8","['hori', 'hori', 'vert', 'vert', 'vert', 'hori', 'hori', 'vert']","no",200,"None","no",0,NA,2,"legacy",NA,1024,2,48000,-16,"experiment",2,"even","red","no",4,"circle",141500.7695,422721.1047,422721.2623,NA,432201.8775,37185.2591,1379.6852,335528.8452,37185.2902,539843.6945,543809.2444,NA,NA,NA,1380.7122,433034.2643,335019.1879,NA,539843.7112,433538.5439,539843.641,"New experiment",19,"dist_absent",56,59,"yes","yes",1680,3.0013494871793,0.215733717948866,"more toward","False","NR","NR","hp",NA,NA,NA,NA,4,NA,"first",0,"R","in"
"35",91,91,91,772.0082,45458.2142,124326.2497,27,65,"#000000","no",2,"bias","psycho","psycho","psycho",0,"uniform",1,0,1,1,NA,1,0,0,1,0,90,90,NA,NA,NA,0,1,1,NA,90,1,90,82.99359367,"12/14/20 12:50:32","The main experiment item","yes","red","no","None","diamond",NA,"pinging_target_expectations.osexp","C:\Users\etp-cp-ping\Desktop\DATA\data","no","mono","no",18,"no","white","no","yes",1050,NA,0,"psycho",34,1,34,"C:/Users/etp-cp-ping/Desktop/DATA/data/subject-2.csv","psycho",3,91,35,"Kafkaesque Koffka","3.2.8","['vert', 'hori', 'hori', 'hori', 'vert', 'hori', 'vert', 'vert']","yes",100,"diamond","no",0,NA,2,"legacy",NA,1024,2,48000,-16,"experiment",2,"even","green","no",1,"circle",141500.7695,422721.1047,422721.2623,NA,432201.8775,37185.2591,1379.6852,335528.8452,37185.2902,543839.1943,546838.1536,NA,NA,NA,1380.7122,433034.2643,335019.1879,NA,543839.2112,433538.5439,543839.1416,"New experiment",19,"dist_absent",56,29,"yes","yes",1680,-5.01415051282071,-0.645641282051107,"more toward","False","NR","R","lp",NA,"Left",NA,NA,-1,NA,"first",4,"NR","in"
"36",92,92,92,1002.8504,46461.0646,125329.1001,28,66,"#000000","no",2,"bias","psycho","psycho","psycho",0,"uniform",1,0,1,1,NA,1,0,0,1,0,91,91,NA,NA,NA,0,1,1,NA,91,1,91,82.99359367,"12/14/20 12:50:32","The main experiment item","yes","red","no","3","circle",NA,"pinging_target_expectations.osexp","C:\Users\etp-cp-ping\Desktop\DATA\data","no","mono","no",18,"no","white","no","yes",1050,NA,0,"psycho",35,1,35,"C:/Users/etp-cp-ping/Desktop/DATA/data/subject-2.csv","psycho",3,92,36,"Kafkaesque Koffka","3.2.8","['hori', 'vert', 'vert', 'vert', 'hori', 'hori', 'vert', 'hori']","yes",100,"circles","no",0,NA,2,"legacy",NA,1024,2,48000,-16,"experiment",2,"even","green","no",2,"diamond",141500.7695,422721.1047,422721.2623,NA,432201.8775,37185.2591,1379.6852,335528.8452,37185.2902,546865.7275,549685.8947,NA,NA,NA,1380.7122,433034.2643,335019.1879,NA,546865.7445,433538.5439,546865.6764,"New experiment",19,"dist_present",56,34,"yes","yes",1680,-4.85615051282087,16.8571087179489,"more away","False","NR","NR","lp",NA,NA,NA,NA,-2,-3,"first",1,"NR","in"
"37",93,93,93,791.9017,47252.9663,126121.0018,29,67,"#000000","no",2,"bias","psycho","psycho","psycho",0,"uniform",1,0,1,1,NA,1,0,0,1,0,92,92,NA,NA,NA,0,1,1,NA,92,1,92,82.99359367,"12/14/20 12:50:32","The main experiment item","yes","green","yes","0","circle",NA,"pinging_target_expectations.osexp","C:\Users\etp-cp-ping\Desktop\DATA\data","no","mono","no",18,"no","white","no","yes",1050,NA,0,"psycho",36,1,36,"C:/Users/etp-cp-ping/Desktop/DATA/data/subject-2.csv","psycho",3,93,37,"Kafkaesque Koffka","3.2.8","['vert', 'hori', 'hori', 'hori', 'vert', 'vert', 'hori', 'vert']","no",200,"None","no",0,NA,2,"legacy",NA,1024,2,48000,-16,"experiment",2,"even","red","no",3,"diamond",141500.7695,422721.1047,422721.2623,NA,432201.8775,37185.2591,1379.6852,335528.8452,37185.2902,549715.1646,552278.047,NA,NA,NA,1380.7122,433034.2643,335019.1879,NA,549715.1819,433538.5439,549715.1107,"New experiment",19,"dist_present",56,41,"yes","yes",1680,-4.49565051282068,12.5808587179489,"more away","False","NR","NR","lp",NA,"Left",NA,NA,-3,0,"first",2,"NR","in"
"38",94,94,94,1124.6515,48377.6178,127245.6533,30,68,"#000000","no",2,"bias","psycho","psycho","psycho",0,"uniform",1,0,1,1,NA,1,0,0,1,0,93,93,NA,NA,NA,0,1,1,NA,93,1,93,82.99359367,"12/14/20 12:50:32","The main experiment item","yes","green","no","1","diamond",NA,"pinging_target_expectations.osexp","C:\Users\etp-cp-ping\Desktop\DATA\data","no","mono","no",18,"no","white","no","yes",1050,NA,0,"psycho",37,1,37,"C:/Users/etp-cp-ping/Desktop/DATA/data/subject-2.csv","psycho",3,94,38,"Kafkaesque Koffka","3.2.8","['vert', 'hori', 'vert', 'hori', 'vert', 'vert', 'hori', 'hori']","yes",100,"diamond","no",0,NA,2,"legacy",NA,1024,2,48000,-16,"experiment",2,"even","red","no",4,"circle",141500.7695,422721.1047,422721.2623,NA,432201.8775,37185.2591,1379.6852,335528.8452,37185.2902,552307.6237,555262.406,NA,NA,NA,1380.7122,433034.2643,335019.1879,NA,552307.641,433538.5439,552307.5688,"New experiment",19,"dist_present",56,52,"yes","yes",1680,-0.352775512820624,0.853483717948867,"more toward","False","NR","NR","lp","Left",NA,NA,NA,4,-1,"first",3,"NR","in"
"39",95,95,95,633.6066,49011.2244,127879.2599,30,68,"#000000","no",2,"bias","psycho","psycho","psycho",0,"uniform",0,0,1,1,NA,1,0,0,1,0,94,94,NA,NA,NA,0,1,1,NA,94,1,94,82.99359367,"12/14/20 12:50:32","The main experiment item","yes","green","no","7","circle",NA,"pinging_target_expectations.osexp","C:\Users\etp-cp-ping\Desktop\DATA\data","no","mono","no",18,"no","white","no","yes",1050,NA,0,"psycho",38,1,38,"C:/Users/etp-cp-ping/Desktop/DATA/data/subject-2.csv","psycho",3,95,39,"Kafkaesque Koffka","3.2.8","['vert', 'vert', 'hori', 'vert', 'hori', 'vert', 'hori', 'hori']","yes",100,"circles","no",0,NA,2,"legacy",NA,1024,2,48000,-16,"experiment",2,"even","red","no",1,"diamond",141500.7695,422721.1047,422721.2623,NA,432201.8775,37185.2591,1379.6852,335528.8452,37185.2902,555292.4621,557758.1339,NA,NA,NA,1380.7122,433034.2643,335019.1879,NA,555292.4797,433538.5439,555292.4095,"New experiment",19,"dist_present",56,28,"yes","yes",1680,4.03222448717938,18.4351087179489,"more away","False","NR","NR","lp",NA,NA,NA,NA,-1,1,"first",4,"NR","in"
"40",96,96,96,616.6417,49627.8661,128495.9016,31,69,"#000000","no",2,"bias","psycho","psycho","psycho",0,"uniform",1,0,1,1,NA,1,0,0,1,0,95,95,NA,NA,NA,0,1,1,NA,95,1,95,82.99359367,"12/14/20 12:50:32","The main experiment item","yes","red","no","None","circle",NA,"pinging_target_expectations.osexp","C:\Users\etp-cp-ping\Desktop\DATA\data","no","mono","no",18,"no","white","no","yes",1050,NA,0,"psycho",39,1,39,"C:/Users/etp-cp-ping/Desktop/DATA/data/subject-2.csv","psycho",4,96,40,"Kafkaesque Koffka","3.2.8","['hori', 'hori', 'vert', 'hori', 'hori', 'vert', 'vert', 'vert']","yes",100,"diamond","no",0,NA,2,"legacy",NA,1024,2,48000,-16,"experiment",2,"even","green","yes",0,"diamond",141500.7695,422721.1047,422721.2623,NA,432201.8775,37185.2591,1379.6852,335528.8452,37185.2902,557788.1164,560421.9014,NA,NA,NA,1380.7122,433034.2643,335019.1879,NA,557788.1332,433538.5439,557788.0635,"New experiment",19,"dist_absent",56,19,"yes","no",1680,8.18697448717929,6.61323371794887,"more away","False","NR","NR","lp",NA,NA,NA,NA,0,NA,"first",1,"NR","ex"
"41",97,97,97,746.7075,50374.5736,129242.6091,32,70,"#000000","no",2,"bias","psycho","psycho","psycho",0,"uniform",1,0,1,1,NA,1,0,0,1,0,96,96,NA,NA,NA,0,1,1,NA,96,1,96,82.99359367,"12/14/20 12:50:32","The main experiment item","yes","green","no","7","circle",NA,"pinging_target_expectations.osexp","C:\Users\etp-cp-ping\Desktop\DATA\data","no","mono","no",18,"no","white","no","yes",1050,NA,0,"psycho",40,1,40,"C:/Users/etp-cp-ping/Desktop/DATA/data/subject-2.csv","psycho",4,97,41,"Kafkaesque Koffka","3.2.8","['vert', 'hori', 'hori', 'vert', 'hori', 'vert', 'vert', 'hori']","yes",100,"diamond","no",0,NA,2,"legacy",NA,1024,2,48000,-16,"experiment",2,"even","red","yes",0,"diamond",141500.7695,422721.1047,422721.2623,NA,432201.8775,37185.2591,1379.6852,335528.8452,37185.2902,560452.1251,563198.159,NA,NA,NA,1380.7122,433034.2643,335019.1879,NA,560452.1419,433538.5439,560452.0729,"New experiment",19,"dist_present",56,18,"yes","yes",1680,-5.1439005128208,19.1879837179488,"more away","False","R","NR","hp","Right",NA,NA,NA,0,1,"first",0,"NR","ex"
"42",98,98,98,587.1873,50961.7609,129829.7964,32,70,"#000000","no",2,"bias","psycho","psycho","psycho",0,"uniform",0,0,1,1,NA,1,0,0,1,0,97,97,NA,NA,NA,0,1,1,NA,97,1,97,82.99359367,"12/14/20 12:50:32","The main experiment item","yes","green","no","6","circle",NA,"pinging_target_expectations.osexp","C:\Users\etp-cp-ping\Desktop\DATA\data","no","mono","no",18,"no","white","no","yes",1050,NA,0,"psycho",41,1,41,"C:/Users/etp-cp-ping/Desktop/DATA/data/subject-2.csv","psycho",4,98,42,"Kafkaesque Koffka","3.2.8","['hori', 'hori', 'hori', 'vert', 'vert', 'hori', 'vert', 'vert']","yes",100,"diamond","no",0,NA,2,"legacy",NA,1024,2,48000,-16,"experiment",2,"even","red","yes",0,"diamond",141500.7695,422721.1047,422721.2623,NA,432201.8775,37185.2591,1379.6852,335528.8452,37185.2902,563228.5644,565782.1431,NA,NA,NA,1380.7122,433034.2643,335019.1879,NA,563228.5815,433538.5439,563228.5084,"New experiment",19,"dist_present",56,17,"yes","yes",1680,-4.63377551282069,9.91123371794888,"more away","False","R","NR","hp","Right",NA,"Right",NA,0,2,"first",0,"R","ex"
"43",99,99,99,762.828,51724.5889,130592.6244,33,71,"#000000","no",2,"bias","psycho","psycho","psycho",0,"uniform",1,0,1,1,NA,1,0,0,1,0,98,98,NA,NA,NA,0,1,1,NA,98,1,98,82.99359367,"12/14/20 12:50:32","The main experiment item","yes","red","no","6","circle",NA,"pinging_target_expectations.osexp","C:\Users\etp-cp-ping\Desktop\DATA\data","no","mono","no",18,"no","white","no","yes",1050,NA,0,"psycho",42,1,42,"C:/Users/etp-cp-ping/Desktop/DATA/data/subject-2.csv","psycho",5,99,43,"Kafkaesque Koffka","3.2.8","['hori', 'vert', 'vert', 'hori', 'hori', 'vert', 'vert', 'hori']","no",200,"None","no",0,NA,2,"legacy",NA,1024,2,48000,-16,"experiment",2,"even","green","yes",0,"diamond",141500.7695,422721.1047,422721.2623,NA,432201.8775,37185.2591,1379.6852,335528.8452,37185.2902,565814.1099,568333.9607,NA,NA,NA,1380.7122,433034.2643,335019.1879,NA,565814.1263,433538.5439,565814.0569,"New experiment",19,"dist_present",56,17,"yes","no",1680,10.1077244871793,10.0271087179489,"more away","False","R","R","hp","Right",NA,"Right",NA,0,2,"first",0,"R","ex"
"44",100,100,100,856.9341,52581.523,131449.5585,34,72,"#000000","no",2,"bias","psycho","psycho","psycho",0,"uniform",1,0,1,1,NA,1,0,0,1,0,99,99,NA,NA,NA,0,1,1,NA,99,1,99,82.99359367,"12/14/20 12:50:32","The main experiment item","yes","red","no","5","diamond",NA,"pinging_target_expectations.osexp","C:\Users\etp-cp-ping\Desktop\DATA\data","no","mono","no",18,"no","white","no","yes",1050,NA,0,"psycho",43,1,43,"C:/Users/etp-cp-ping/Desktop/DATA/data/subject-2.csv","psycho",5,100,44,"Kafkaesque Koffka","3.2.8","['hori', 'hori', 'hori', 'vert', 'vert', 'vert', 'vert', 'hori']","no",200,"None","no",0,NA,2,"legacy",NA,1024,2,48000,-16,"experiment",2,"even","green","yes",0,"circle",141500.7695,422721.1047,422721.2623,NA,432201.8775,37185.2591,1379.6852,335528.8452,37185.2902,568364.054,571093.8732,NA,NA,NA,1380.7122,433034.2643,335019.1879,NA,568364.0709,433538.5439,568364.0014,"New experiment",19,"dist_present",56,16,"yes","yes",1680,NA,NA,"no hp","True","R","NR","hp","Right",NA,NA,NA,0,3,"first",0,"R","ex"
"45",101,101,101,691.6666,53273.1896,132141.2251,35,73,"#000000","no",2,"bias","psycho","psycho","psycho",0,"uniform",1,0,1,1,NA,1,0,0,1,0,100,100,NA,NA,NA,0,1,1,NA,100,1,100,82.99359367,"12/14/20 12:50:32","The main experiment item","yes","red","no","4","diamond",NA,"pinging_target_expectations.osexp","C:\Users\etp-cp-ping\Desktop\DATA\data","no","mono","no",18,"no","white","no","yes",1050,NA,0,"psycho",44,1,44,"C:/Users/etp-cp-ping/Desktop/DATA/data/subject-2.csv","psycho",5,101,45,"Kafkaesque Koffka","3.2.8","['hori', 'hori', 'hori', 'vert', 'vert', 'hori', 'vert', 'vert']","no",200,"None","no",0,NA,2,"legacy",NA,1024,2,48000,-16,"experiment",2,"even","green","yes",0,"circle",141500.7695,422721.1047,422721.2623,NA,432201.8775,37185.2591,1379.6852,335528.8452,37185.2902,571123.8452,573678.1208,NA,NA,NA,1380.7122,433034.2643,335019.1879,NA,571123.862,433538.5439,571123.7929,"New experiment",19,"dist_present",56,15,"yes","yes",1680,9.18284948717925,11.8311087179488,"more away","False","R","NR","hp",NA,NA,NA,NA,0,4,"first",0,"R","in"
"46",102,102,102,542.396,53815.5856,132683.6211,36,74,"#000000","no",2,"bias","psycho","psycho","psycho",0,"uniform",1,0,1,1,NA,1,0,0,1,0,101,101,NA,NA,NA,0,1,1,NA,101,1,101,82.99359367,"12/14/20 12:50:32","The main experiment item","yes","red","no","None","diamond",NA,"pinging_target_expectations.osexp","C:\Users\etp-cp-ping\Desktop\DATA\data","no","mono","no",18,"no","white","no","yes",1050,NA,0,"psycho",45,1,45,"C:/Users/etp-cp-ping/Desktop/DATA/data/subject-2.csv","psycho",5,102,46,"Kafkaesque Koffka","3.2.8","['hori', 'vert', 'vert', 'hori', 'vert', 'hori', 'hori', 'vert']","no",200,"None","no",0,NA,2,"legacy",NA,1024,2,48000,-16,"experiment",2,"even","green","yes",0,"circle",141500.7695,422721.1047,422721.2623,NA,432201.8775,37185.2591,1379.6852,335528.8452,37185.2902,573708.0555,575973.9371,NA,NA,NA,1380.7122,433034.2643,335019.1879,NA,573708.0724,433538.5439,573708.0021,"New experiment",19,"dist_absent",56,19,"yes","yes",1680,11.6483494871793,11.0609837179489,"more away","False","R","NR","hp",NA,NA,NA,NA,0,NA,"first",0,"R","in"
"47",103,103,103,760.7533,54576.3389,133444.3744,37,75,"#000000","no",2,"bias","psycho","psycho","psycho",0,"uniform",1,0,1,1,NA,1,0,0,1,0,102,102,NA,NA,NA,0,1,1,NA,102,1,102,82.99359367,"12/14/20 12:50:32","The main experiment item","yes","green","yes","0","diamond",NA,"pinging_target_expectations.osexp","C:\Users\etp-cp-ping\Desktop\DATA\data","no","mono","no",18,"no","white","no","yes",1050,NA,0,"psycho",46,1,46,"C:/Users/etp-cp-ping/Desktop/DATA/data/subject-2.csv","psycho",5,103,47,"Kafkaesque Koffka","3.2.8","['hori', 'hori', 'vert', 'hori', 'vert', 'vert', 'vert', 'hori']","yes",100,"diamond","no",0,NA,2,"legacy",NA,1024,2,48000,-16,"experiment",2,"even","red","no",3,"circle",141500.7695,422721.1047,422721.2623,NA,432201.8775,37185.2591,1379.6852,335528.8452,37185.2902,576004.1343,578565.8612,NA,NA,NA,1380.7122,433034.2643,335019.1879,NA,576004.1655,433538.5439,576004.0577,"New experiment",19,"dist_present",56,41,"yes","yes",1680,7.17872448717932,11.7262337179489,"more away","False","NR","NR","hp",NA,"Left",NA,NA,-3,0,"first",0,"R","in"
"48",104,104,104,1496.0344,56072.3733,134940.4088,38,76,"#000000","no",2,"bias","psycho","psycho","psycho",0,"uniform",1,0,1,1,NA,1,0,0,1,0,103,103,NA,NA,NA,0,1,1,NA,103,1,103,82.99359367,"12/14/20 12:50:32","The main experiment item","yes","green","no","2","diamond",NA,"pinging_target_expectations.osexp","C:\Users\etp-cp-ping\Desktop\DATA\data","no","mono","no",18,"no","white","no","yes",1050,NA,0,"psycho",47,1,47,"C:/Users/etp-cp-ping/Desktop/DATA/data/subject-2.csv","psycho",5,104,48,"Kafkaesque Koffka","3.2.8","['vert', 'vert', 'vert', 'hori', 'vert', 'hori', 'hori', 'hori']","yes",100,"circles","no",0,NA,2,"legacy",NA,1024,2,48000,-16,"experiment",2,"even","red","yes",0,"circle",141500.7695,422721.1047,422721.2623,NA,432201.8775,37185.2591,1379.6852,335528.8452,37185.2902,578595.9006,582070.0407,NA,NA,NA,1380.7122,433034.2643,335019.1879,NA,578595.9171,433538.5439,578595.8471,"New experiment",19,"dist_present",56,13,"yes","yes",1680,4.5838494871793,-2.37026628205113,"more toward","False","NR","NR","lp","Left",NA,"Left",NA,0,-2,"first",3,"NR","in"
"49",105,105,105,1081.0337,57153.407,136021.4425,39,77,"#000000","no",2,"bias","psycho","psycho","psycho",0,"uniform",1,0,1,1,NA,1,0,0,1,0,104,104,NA,NA,NA,0,1,1,NA,104,1,104,82.99359367,"12/14/20 12:50:32","The main experiment item","yes","green","no","6","diamond",NA,"pinging_target_expectations.osexp","C:\Users\etp-cp-ping\Desktop\DATA\data","no","mono","no",18,"no","white","no","yes",1050,NA,0,"psycho",48,1,48,"C:/Users/etp-cp-ping/Desktop/DATA/data/subject-2.csv","psycho",5,105,49,"Kafkaesque Koffka","3.2.8","['hori', 'hori', 'vert', 'hori', 'vert', 'hori', 'vert', 'vert']","yes",100,"circles","no",0,NA,2,"legacy",NA,1024,2,48000,-16,"experiment",2,"even","red","yes",0,"circle",141500.7695,422721.1047,422721.2623,NA,432201.8775,37185.2591,1379.6852,335528.8452,37185.2902,582100.0858,584990.1937,NA,NA,NA,1380.7122,433034.2643,335019.1879,NA,582100.1023,433538.5439,582100.0335,"New experiment",19,"dist_present",56,17,"yes","yes",1680,4.66609948717919,15.0291087179489,"more away","False","R","NR","hp","Right",NA,"Right",NA,0,2,"first",0,"NR","in"
"50",106,106,106,1338.2088,58491.6158,137359.6513,40,78,"#000000","no",2,"bias","psycho","psycho","psycho",0,"uniform",1,0,1,1,NA,1,0,0,1,0,105,105,NA,NA,NA,0,1,1,NA,105,1,105,82.99359367,"12/14/20 12:50:32","The main experiment item","yes","red","no","None","diamond",NA,"pinging_target_expectations.osexp","C:\Users\etp-cp-ping\Desktop\DATA\data","no","mono","no",18,"no","white","no","yes",1050,NA,0,"psycho",49,1,49,"C:/Users/etp-cp-ping/Desktop/DATA/data/subject-2.csv","psycho",5,106,50,"Kafkaesque Koffka","3.2.8","['vert', 'vert', 'hori', 'vert', 'hori', 'vert', 'hori', 'hori']","no",200,"None","no",0,NA,2,"legacy",NA,1024,2,48000,-16,"experiment",2,"even","green","no",7,"circle",141500.7695,422721.1047,422721.2623,NA,432201.8775,37185.2591,1379.6852,335528.8452,37185.2902,585020.4065,588253.9333,NA,NA,NA,1380.7122,433034.2643,335019.1879,NA,585020.4232,433538.5439,585020.3522,"New experiment",19,"dist_absent",56,89,"yes","yes",1680,15.6208494871793,19.2567337179488,"more away","False","NR","NR","hp",NA,"Right",NA,NA,1,NA,"first",0,"R","in"
"51",107,107,107,973.0107,59464.6265,138332.662,41,79,"#000000","no",2,"bias","psycho","psycho","psycho",0,"uniform",1,0,1,1,NA,1,0,0,1,0,106,106,NA,NA,NA,0,1,1,NA,106,1,106,82.99359367,"12/14/20 12:50:32","The main experiment item","yes","green","no","5","circle",NA,"pinging_target_expectations.osexp","C:\Users\etp-cp-ping\Desktop\DATA\data","no","mono","no",18,"no","white","no","yes",1050,NA,0,"psycho",50,1,50,"C:/Users/etp-cp-ping/Desktop/DATA/data/subject-2.csv","psycho",5,107,51,"Kafkaesque Koffka","3.2.8","['hori', 'hori', 'vert', 'vert', 'vert', 'vert', 'hori', 'hori']","no",200,"None","no",0,NA,2,"legacy",NA,1024,2,48000,-16,"experiment",2,"even","red","no",7,"diamond",141500.7695,422721.1047,422721.2623,NA,432201.8775,37185.2591,1379.6852,335528.8452,37185.2902,588283.9122,590941.9579,NA,NA,NA,1380.7122,433034.2643,335019.1879,NA,588283.9287,433538.5439,588283.8603,"New experiment",19,"dist_present",56,86,"yes","yes",1680,9.82047448717936,-24.508391282051,"more toward","False","R","NR","lp",NA,NA,NA,NA,1,3,"first",7,"NR","in"
"52",108,108,108,1282.3103,60746.9368,139614.9723,42,80,"#000000","no",2,"bias","psycho","psycho","psycho",0,"uniform",1,0,1,1,NA,1,0,0,1,0,107,107,NA,NA,NA,0,1,1,NA,107,1,107,82.99359367,"12/14/20 12:50:32","The main experiment item","yes","green","no","None","circle",NA,"pinging_target_expectations.osexp","C:\Users\etp-cp-ping\Desktop\DATA\data","no","mono","no",18,"no","white","no","yes",1050,NA,0,"psycho",51,1,51,"C:/Users/etp-cp-ping/Desktop/DATA/data/subject-2.csv","psycho",5,108,52,"Kafkaesque Koffka","3.2.8","['hori', 'hori', 'vert', 'hori', 'vert', 'vert', 'hori', 'vert']","yes",100,"diamond","no",0,NA,2,"legacy",NA,1024,2,48000,-16,"experiment",2,"even","red","no",5,"diamond",141500.7695,422721.1047,422721.2623,NA,432201.8775,37185.2591,1379.6852,335528.8452,37185.2902,590972.052,594110.0132,NA,NA,NA,1380.7122,433034.2643,335019.1879,NA,590972.0685,433538.5439,590972.0003,"New experiment",19,"dist_absent",56,69,"yes","yes",1680,20.0272244871792,-7.0828912820511,"more toward","False","NR","NR","lp",NA,"Right",NA,NA,3,NA,"first",7,"R","in"
"53",109,109,109,552.4154,61299.3522,140167.3877,43,81,"#000000","no",2,"bias","psycho","psycho","psycho",0,"uniform",1,0,1,1,NA,1,0,0,1,0,108,108,NA,NA,NA,0,1,1,NA,108,1,108,82.99359367,"12/14/20 12:50:32","The main experiment item","yes","green","no","None","circle",NA,"pinging_target_expectations.osexp","C:\Users\etp-cp-ping\Desktop\DATA\data","no","mono","no",18,"no","white","no","yes",1050,NA,0,"psycho",52,1,52,"C:/Users/etp-cp-ping/Desktop/DATA/data/subject-2.csv","psycho",5,109,53,"Kafkaesque Koffka","3.2.8","['hori', 'vert', 'vert', 'hori', 'hori', 'vert', 'vert', 'hori']","yes",100,"diamond","no",0,NA,2,"legacy",NA,1024,2,48000,-16,"experiment",2,"even","red","no",6,"diamond",141500.7695,422721.1047,422721.2623,NA,432201.8775,37185.2591,1379.6852,335528.8452,37185.2902,594139.7856,596598.1795,NA,NA,NA,1380.7122,433034.2643,335019.1879,NA,594139.8024,433538.5439,594139.7318,"New experiment",19,"dist_absent",56,79,"yes","yes",1680,5.78109948717922,6.38760871794887,"more away","False","NR","R","lp",NA,"Right",NA,"Right",2,NA,"first",5,"NR","in"
"54",110,110,110,639.0245,61938.3767,140806.4122,44,82,"#000000","no",2,"bias","psycho","psycho","psycho",0,"uniform",1,0,1,1,NA,1,0,0,1,0,109,109,NA,NA,NA,0,1,1,NA,109,1,109,82.99359367,"12/14/20 12:50:32","The main experiment item","yes","green","no","5","circle",NA,"pinging_target_expectations.osexp","C:\Users\etp-cp-ping\Desktop\DATA\data","no","mono","no",18,"no","white","no","yes",1050,NA,0,"psycho",53,1,53,"C:/Users/etp-cp-ping/Desktop/DATA/data/subject-2.csv","psycho",5,110,54,"Kafkaesque Koffka","3.2.8","['vert', 'hori', 'hori', 'hori', 'vert', 'vert', 'vert', 'hori']","yes",100,"circles","no",0,NA,2,"legacy",NA,1024,2,48000,-16,"experiment",2,"even","red","no",7,"diamond",141500.7695,422721.1047,422721.2623,NA,432201.8775,37185.2591,1379.6852,335528.8452,37185.2902,596628.4813,599054.1384,NA,NA,NA,1380.7122,433034.2643,335019.1879,NA,596628.4982,433538.5439,596628.4277,"New experiment",19,"dist_present",56,86,"yes","yes",1680,-1.44240051282071,57.1463587179489,"more away","False","NR","NR","lp",NA,NA,NA,NA,1,3,"first",6,"NR","in"
"55",111,111,111,707.4675,62645.8442,141513.8797,44,82,"#000000","no",2,"bias","psycho","psycho","psycho",0,"uniform",0,0,1,1,NA,1,0,0,1,0,110,110,NA,NA,NA,0,1,1,NA,110,1,110,82.99359367,"12/14/20 12:50:32","The main experiment item","yes","green","no","2","circle",NA,"pinging_target_expectations.osexp","C:\Users\etp-cp-ping\Desktop\DATA\data","no","mono","no",18,"no","white","no","yes",1050,NA,0,"psycho",54,1,54,"C:/Users/etp-cp-ping/Desktop/DATA/data/subject-2.csv","psycho",5,111,55,"Kafkaesque Koffka","3.2.8","['vert', 'hori', 'vert', 'hori', 'hori', 'vert', 'vert', 'hori']","no",200,"None","no",0,NA,2,"legacy",NA,1024,2,48000,-16,"experiment",2,"even","red","no",6,"diamond",141500.7695,422721.1047,422721.2623,NA,432201.8775,37185.2591,1379.6852,335528.8452,37185.2902,599084.2064,601638.1125,NA,NA,NA,1380.7122,433034.2643,335019.1879,NA,599084.2232,433538.5439,599084.1533,"New experiment",19,"dist_present",56,73,"yes","yes",1680,-1.00290051282074,3.72773371794883,"more toward","False","NR","NR","lp",NA,NA,NA,NA,2,-2,"first",7,"NR","in"
"56",112,112,112,767.9251,63413.7693,142281.8048,45,83,"#000000","no",2,"bias","psycho","psycho","psycho",0,"uniform",1,0,1,1,NA,1,0,0,1,0,111,111,NA,NA,NA,0,1,1,NA,111,1,111,82.99359367,"12/14/20 12:50:32","The main experiment item","yes","red","no","1","circle",NA,"pinging_target_expectations.osexp","C:\Users\etp-cp-ping\Desktop\DATA\data","no","mono","no",18,"no","white","no","yes",1050,NA,0,"psycho",55,1,55,"C:/Users/etp-cp-ping/Desktop/DATA/data/subject-2.csv","psycho",5,112,56,"Kafkaesque Koffka","3.2.8","['vert', 'hori', 'vert', 'hori', 'hori', 'vert', 'hori', 'vert']","no",200,"None","no",0,NA,2,"legacy",NA,1024,2,48000,-16,"experiment",2,"even","green","yes",0,"diamond",141500.7695,422721.1047,422721.2623,NA,432201.8775,37185.2591,1379.6852,335528.8452,37185.2902,601668.3044,604125.9607,NA,NA,NA,1380.7122,433034.2643,335019.1879,NA,601668.3212,433538.5439,601668.2497,"New experiment",19,"dist_present",56,12,"yes","yes",1680,-1.20902551282061,-8.83739128205113,"more toward","False","NR","NR","lp","Left",NA,NA,NA,0,-1,"first",6,"NR","in"
"57",113,113,113,1080.1468,1080.1468,143361.9516,1,84,"#000000","no",3,"bias","psycho","psycho","psycho",0,"uniform",1,0,2,2,NA,2,0,0,2,0,112,112,NA,NA,NA,0,2,2,NA,112,2,112,82.99359367,"12/14/20 12:50:32","The main experiment item","yes","red","no","7","diamond",NA,"pinging_target_expectations.osexp","C:\Users\etp-cp-ping\Desktop\DATA\data","no","mono","no",18,"no","white","no","yes",1050,NA,0,"psycho",0,2,0,"C:/Users/etp-cp-ping/Desktop/DATA/data/subject-2.csv","psycho",0,113,1,"Kafkaesque Koffka","3.2.8","['vert', 'hori', 'vert', 'hori', 'vert', 'hori', 'hori', 'vert']","no",200,"None","no",0,NA,2,"legacy",NA,1024,2,48000,-16,"experiment",2,"even","green","no",5,"circle",141500.7695,691857.0817,691857.1398,NA,691862.316,37185.2591,1379.6852,604664.817,37185.2902,693240.7742,696078.1478,NA,NA,NA,1380.7122,692731.5635,604155.1691,NA,693240.7928,693233.3953,693240.6886,"New experiment",19,"dist_present",56,68,"yes","yes",1680,-8.81440051282068,4.16698371794886,"more toward","False","NR","NR","lp",NA,NA,NA,NA,3,1,"first",999,"NR","in"
"58",114,114,114,683.5262,1763.673,144045.4778,1,84,"#000000","no",3,"bias","psycho","psycho","psycho",0,"uniform",0,0,2,2,NA,2,0,0,2,0,113,113,NA,NA,NA,0,2,2,NA,113,2,113,82.99359367,"12/14/20 12:50:32","The main experiment item","yes","green","no","None","circle",NA,"pinging_target_expectations.osexp","C:\Users\etp-cp-ping\Desktop\DATA\data","no","mono","no",18,"no","white","no","yes",1050,NA,0,"psycho",1,2,1,"C:/Users/etp-cp-ping/Desktop/DATA/data/subject-2.csv","psycho",0,114,2,"Kafkaesque Koffka","3.2.8","['vert', 'hori', 'vert', 'vert', 'hori', 'hori', 'vert', 'hori']","yes",100,"diamond","no",0,NA,2,"legacy",NA,1024,2,48000,-16,"experiment",2,"even","red","no",5,"diamond",141500.7695,691857.0817,691857.1398,NA,691862.316,37185.2591,1379.6852,604664.817,37185.2902,696110.7836,698766.0525,NA,NA,NA,1380.7122,692731.5635,604155.1691,NA,696110.8005,693233.3953,696110.7257,"New experiment",19,"dist_absent",56,69,"yes","yes",1680,-13.9160255128207,-5.92476628205116,"more toward","False","R","NR","lp",NA,"Right",NA,NA,3,NA,"first",5,"NR","in"
"59",115,115,115,1203.0745,2966.7475,145248.5523,2,85,"#000000","no",3,"bias","psycho","psycho","psycho",0,"uniform",1,0,2,2,NA,2,0,0,2,0,114,114,NA,NA,NA,0,2,2,NA,114,2,114,82.99359367,"12/14/20 12:50:32","The main experiment item","yes","green","no","2","circle",NA,"pinging_target_expectations.osexp","C:\Users\etp-cp-ping\Desktop\DATA\data","no","mono","no",18,"no","white","no","yes",1050,NA,0,"psycho",2,2,2,"C:/Users/etp-cp-ping/Desktop/DATA/data/subject-2.csv","psycho",0,115,3,"Kafkaesque Koffka","3.2.8","['vert', 'vert', 'hori', 'hori', 'hori', 'vert', 'hori', 'vert']","no",200,"None","no",0,NA,2,"legacy",NA,1024,2,48000,-16,"experiment",2,"even","red","yes",0,"diamond",141500.7695,691857.0817,691857.1398,NA,691862.316,37185.2591,1379.6852,604664.817,37185.2902,698798.5045,701830.1613,NA,NA,NA,1380.7122,692731.5635,604155.1691,NA,698798.5216,693233.3953,698798.4453,"New experiment",19,"dist_present",56,13,"yes","yes",1680,-10.6794005128208,-4.42989128205113,"more toward","False","NR","NR","lp","Left",NA,"Left",NA,0,-2,"first",5,"R","ex"
"60",116,116,116,736.2438,3702.9913,145984.7961,3,86,"#000000","no",3,"bias","psycho","psycho","psycho",0,"uniform",1,0,2,2,NA,2,0,0,2,0,115,115,NA,NA,NA,0,2,2,NA,115,2,115,82.99359367,"12/14/20 12:50:32","The main experiment item","yes","green","no","1","circle",NA,"pinging_target_expectations.osexp","C:\Users\etp-cp-ping\Desktop\DATA\data","no","mono","no",18,"no","white","no","yes",1050,NA,0,"psycho",3,2,3,"C:/Users/etp-cp-ping/Desktop/DATA/data/subject-2.csv","psycho",0,116,4,"Kafkaesque Koffka","3.2.8","['hori', 'hori', 'vert', 'vert', 'vert', 'hori', 'vert', 'hori']","yes",100,"diamond","no",0,NA,2,"legacy",NA,1024,2,48000,-16,"experiment",2,"even","red","yes",0,"diamond",141500.7695,691857.0817,691857.1398,NA,691862.316,37185.2591,1379.6852,604664.817,37185.2902,701862.2144,704366.8116,NA,NA,NA,1380.7122,692731.5635,604155.1691,NA,701862.2317,693233.3953,701862.1567,"New experiment",19,"dist_present",56,12,"yes","yes",1680,10.1175994871793,-0.954516282051084,"more toward","False","R","NR","hp","Left",NA,NA,NA,0,-1,"first",0,"NR","ex"
"61",117,117,117,502.5963,4205.5876,146487.3924,4,87,"#000000","no",3,"bias","psycho","psycho","psycho",0,"uniform",1,0,2,2,NA,2,0,0,2,0,116,116,NA,NA,NA,0,2,2,NA,116,2,116,82.99359367,"12/14/20 12:50:32","The main experiment item","yes","red","no","None","circle",NA,"pinging_target_expectations.osexp","C:\Users\etp-cp-ping\Desktop\DATA\data","no","mono","no",18,"no","white","no","yes",1050,NA,0,"psycho",4,2,4,"C:/Users/etp-cp-ping/Desktop/DATA/data/subject-2.csv","psycho",0,117,5,"Kafkaesque Koffka","3.2.8","['hori', 'hori', 'vert', 'vert', 'vert', 'vert', 'hori', 'hori']","yes",100,"circles","no",0,NA,2,"legacy",NA,1024,2,48000,-16,"experiment",2,"even","green","no",6,"diamond",141500.7695,691857.0817,691857.1398,NA,691862.316,37185.2591,1379.6852,604664.817,37185.2902,704398.3755,706781.9309,NA,NA,NA,1380.7122,692731.5635,604155.1691,NA,704398.3923,693233.3953,704398.3161,"New experiment",19,"dist_absent",56,79,"yes","yes",1680,-2.72365051282069,-1.74514128205108,"more toward","False","NR","NR","hp",NA,"Right",NA,"Right",2,NA,"first",0,"R","in"
"62",118,118,118,546.7087,4752.2963,147034.1011,5,88,"#000000","no",3,"bias","psycho","psycho","psycho",0,"uniform",1,0,2,2,NA,2,0,0,2,0,117,117,NA,NA,NA,0,2,2,NA,117,2,117,82.99359367,"12/14/20 12:50:32","The main experiment item","yes","green","no","None","circle",NA,"pinging_target_expectations.osexp","C:\Users\etp-cp-ping\Desktop\DATA\data","no","mono","no",18,"no","white","no","yes",1050,NA,0,"psycho",5,2,5,"C:/Users/etp-cp-ping/Desktop/DATA/data/subject-2.csv","psycho",0,118,6,"Kafkaesque Koffka","3.2.8","['vert', 'hori', 'vert', 'hori', 'hori', 'hori', 'vert', 'vert']","yes",100,"circles","no",0,NA,2,"legacy",NA,1024,2,48000,-16,"experiment",2,"even","red","no",3,"diamond",141500.7695,691857.0817,691857.1398,NA,691862.316,37185.2591,1379.6852,604664.817,37185.2902,706812.3492,709261.8873,NA,NA,NA,1380.7122,692731.5635,604155.1691,NA,706812.366,693233.3953,706812.2967,"New experiment",19,"dist_absent",56,49,"yes","yes",1680,-1.94927551282071,0.442608717948933,"more toward","False","NR","R","lp",NA,"Left",NA,NA,-3,NA,"first",6,"NR","in"
"63",119,119,119,576.8191,5329.1154,147610.9202,5,88,"#000000","no",3,"bias","psycho","psycho","psycho",0,"uniform",0,0,2,2,NA,2,0,0,2,0,118,118,NA,NA,NA,0,2,2,NA,118,2,118,82.99359367,"12/14/20 12:50:32","The main experiment item","yes","red","no","3","diamond",NA,"pinging_target_expectations.osexp","C:\Users\etp-cp-ping\Desktop\DATA\data","no","mono","no",18,"no","white","no","yes",1050,NA,0,"psycho",6,2,6,"C:/Users/etp-cp-ping/Desktop/DATA/data/subject-2.csv","psycho",0,119,7,"Kafkaesque Koffka","3.2.8","['hori', 'hori', 'vert', 'vert', 'vert', 'hori', 'hori', 'vert']","yes",100,"diamond","no",0,NA,2,"legacy",NA,1024,2,48000,-16,"experiment",2,"even","green","yes",0,"circle",141500.7695,691857.0817,691857.1398,NA,691862.316,37185.2591,1379.6852,604664.817,37185.2902,709292.0745,711845.9879,NA,NA,NA,1380.7122,692731.5635,604155.1691,NA,709292.0913,693233.3953,709292.0216,"New experiment",19,"dist_present",56,14,"yes","yes",1680,9.78222448717923,7.53098371794888,"more away","False","NR","NR","lp","Left",NA,NA,NA,0,-3,"first",3,"NR","ex"
"64",120,120,120,792.6667,6121.7821,148403.5869,5,88,"#000000","no",3,"bias","psycho","psycho","psycho",0,"uniform",0,0,2,2,NA,2,0,0,2,0,119,119,NA,NA,NA,0,2,2,NA,119,2,119,82.99359367,"12/14/20 12:50:32","The main experiment item","yes","red","no","3","diamond",NA,"pinging_target_expectations.osexp","C:\Users\etp-cp-ping\Desktop\DATA\data","no","mono","no",18,"no","white","no","yes",1050,NA,0,"psycho",7,2,7,"C:/Users/etp-cp-ping/Desktop/DATA/data/subject-2.csv","psycho",0,120,8,"Kafkaesque Koffka","3.2.8","['hori', 'vert', 'vert', 'vert', 'vert', 'hori', 'hori', 'hori']","yes",100,"circles","no",0,NA,2,"legacy",NA,1024,2,48000,-16,"experiment",2,"even","green","no",1,"circle",141500.7695,691857.0817,691857.1398,NA,691862.316,37185.2591,1379.6852,604664.817,37185.2902,711876.1863,714469.9912,NA,NA,NA,1380.7122,692731.5635,604155.1691,NA,711876.2029,693233.3953,711876.1324,"New experiment",19,"dist_present",56,24,"yes","yes",1680,NA,NA,"no hp","True","NR","R","hp",NA,NA,NA,NA,-1,-3,"first",0,"NR","in"
"65",121,121,121,811.3489,6933.131,149214.9358,6,89,"#000000","no",3,"bias","psycho","psycho","psycho",0,"uniform",1,0,2,2,NA,2,0,0,2,0,120,120,NA,NA,NA,0,2,2,NA,120,2,120,82.99359367,"12/14/20 12:50:32","The main experiment item","yes","red","no","None","diamond",NA,"pinging_target_expectations.osexp","C:\Users\etp-cp-ping\Desktop\DATA\data","no","mono","no",18,"no","white","no","yes",1050,NA,0,"psycho",8,2,8,"C:/Users/etp-cp-ping/Desktop/DATA/data/subject-2.csv","psycho",0,121,9,"Kafkaesque Koffka","3.2.8","['hori', 'hori', 'vert', 'hori', 'vert', 'hori', 'vert', 'vert']","yes",100,"circles","no",0,NA,2,"legacy",NA,1024,2,48000,-16,"experiment",2,"even","green","no",2,"circle",141500.7695,691857.0817,691857.1398,NA,691862.316,37185.2591,1379.6852,604664.817,37185.2902,714499.9586,717222.1424,NA,NA,NA,1380.7122,692731.5635,604155.1691,NA,714499.9755,693233.3953,714499.9048,"New experiment",19,"dist_absent",56,39,"yes","yes",1680,0.292974487179223,9.13960871794891,"more away","False","NR","NR","lp",NA,"Left",NA,"Left",-2,NA,"first",1,"NR","in"
"66",122,122,122,855.8123,7788.9433,150070.7481,7,90,"#000000","no",3,"bias","psycho","psycho","psycho",0,"uniform",1,0,2,2,NA,2,0,0,2,0,121,121,NA,NA,NA,0,2,2,NA,121,2,121,82.99359367,"12/14/20 12:50:32","The main experiment item","yes","red","no","7","diamond",NA,"pinging_target_expectations.osexp","C:\Users\etp-cp-ping\Desktop\DATA\data","no","mono","no",18,"no","white","no","yes",1050,NA,0,"psycho",9,2,9,"C:/Users/etp-cp-ping/Desktop/DATA/data/subject-2.csv","psycho",0,122,10,"Kafkaesque Koffka","3.2.8","['vert', 'hori', 'hori', 'vert', 'vert', 'vert', 'hori', 'hori']","no",200,"None","no",0,NA,2,"legacy",NA,1024,2,48000,-16,"experiment",2,"even","green","no",2,"circle",141500.7695,691857.0817,691857.1398,NA,691862.316,37185.2591,1379.6852,604664.817,37185.2902,717252.2654,719973.9894,NA,NA,NA,1380.7122,692731.5635,604155.1691,NA,717252.2822,693233.3953,717252.2133,"New experiment",19,"dist_present",56,38,"yes","yes",1680,4.90834948717926,21.3249837179489,"more away","False","R","NR","lp",NA,NA,NA,NA,-2,1,"first",2,"NR","in"
"67",123,123,123,761.7173,8550.6606,150832.4654,8,91,"#000000","no",3,"bias","psycho","psycho","psycho",0,"uniform",1,0,2,2,NA,2,0,0,2,0,122,122,NA,NA,NA,0,2,2,NA,122,2,122,82.99359367,"12/14/20 12:50:32","The main experiment item","yes","red","yes","0","circle",NA,"pinging_target_expectations.osexp","C:\Users\etp-cp-ping\Desktop\DATA\data","no","mono","no",18,"no","white","no","yes",1050,NA,0,"psycho",10,2,10,"C:/Users/etp-cp-ping/Desktop/DATA/data/subject-2.csv","psycho",0,123,11,"Kafkaesque Koffka","3.2.8","['hori', 'hori', 'vert', 'hori', 'vert', 'vert', 'vert', 'hori']","yes",100,"diamond","no",0,NA,2,"legacy",NA,1024,2,48000,-16,"experiment",2,"even","green","no",4,"diamond",141500.7695,691857.0817,691857.1398,NA,691862.316,37185.2591,1379.6852,604664.817,37185.2902,720001.7828,722869.8999,NA,NA,NA,1380.7122,692731.5635,604155.1691,NA,720001.7996,693233.3953,720001.7289,"New experiment",19,"dist_present",56,51,"yes","yes",1680,6.3854744871792,12.0744837179489,"more away","False","NR","NR","lp",NA,NA,NA,NA,4,0,"first",2,"R","in"
"68",124,124,124,940.7166,9491.3772,151773.182,9,92,"#000000","no",3,"bias","psycho","psycho","psycho",0,"uniform",1,0,2,2,NA,2,0,0,2,0,123,123,NA,NA,NA,0,2,2,NA,123,2,123,82.99359367,"12/14/20 12:50:32","The main experiment item","yes","green","no","6","diamond",NA,"pinging_target_expectations.osexp","C:\Users\etp-cp-ping\Desktop\DATA\data","no","mono","no",18,"no","white","no","yes",1050,NA,0,"psycho",11,2,11,"C:/Users/etp-cp-ping/Desktop/DATA/data/subject-2.csv","psycho",0,124,12,"Kafkaesque Koffka","3.2.8","['vert', 'hori', 'vert', 'vert', 'hori', 'hori', 'vert', 'hori']","no",200,"None","no",0,NA,2,"legacy",NA,1024,2,48000,-16,"experiment",2,"even","red","no",3,"circle",141500.7695,691857.0817,691857.1398,NA,691862.316,37185.2591,1379.6852,604664.817,37185.2902,722899.9055,725838.1454,NA,NA,NA,1380.7122,692731.5635,604155.1691,NA,722899.9221,693233.3953,722899.8523,"New experiment",19,"dist_present",56,47,"yes","yes",1680,4.63784948717925,11.7406087179489,"more away","False","NR","NR","lp",NA,NA,NA,NA,-3,2,"first",4,"NR","in"
"69",125,125,125,1055.4676,10546.8448,152828.6496,10,93,"#000000","no",3,"bias","psycho","psycho","psycho",0,"uniform",1,0,2,2,NA,2,0,0,2,0,124,124,NA,NA,NA,0,2,2,NA,124,2,124,82.99359367,"12/14/20 12:50:32","The main experiment item","yes","red","no","None","diamond",NA,"pinging_target_expectations.osexp","C:\Users\etp-cp-ping\Desktop\DATA\data","no","mono","no",18,"no","white","no","yes",1050,NA,0,"psycho",12,2,12,"C:/Users/etp-cp-ping/Desktop/DATA/data/subject-2.csv","psycho",0,125,13,"Kafkaesque Koffka","3.2.8","['hori', 'hori', 'vert', 'vert', 'vert', 'hori', 'hori', 'vert']","no",200,"None","no",0,NA,2,"legacy",NA,1024,2,48000,-16,"experiment",2,"even","green","no",7,"circle",141500.7695,691857.0817,691857.1398,NA,691862.316,37185.2591,1379.6852,604664.817,37185.2902,725868.8051,728839.0528,NA,NA,NA,1380.7122,692731.5635,604155.1691,NA,725868.8216,693233.3953,725868.7521,"New experiment",19,"dist_absent",56,89,"yes","yes",1680,10.1853494871794,4.89460871794883,"more toward","False","NR","NR","lp",NA,"Right",NA,NA,1,NA,"first",3,"NR","in"
"70",126,126,126,755.6563,11302.5011,153584.3059,11,94,"#000000","no",3,"bias","psycho","psycho","psycho",0,"uniform",1,0,2,2,NA,2,0,0,2,0,125,125,NA,NA,NA,0,2,2,NA,125,2,125,82.99359367,"12/14/20 12:50:32","The main experiment item","yes","red","no","None","circle",NA,"pinging_target_expectations.osexp","C:\Users\etp-cp-ping\Desktop\DATA\data","no","mono","no",18,"no","white","no","yes",1050,NA,0,"psycho",13,2,13,"C:/Users/etp-cp-ping/Desktop/DATA/data/subject-2.csv","psycho",1,126,14,"Kafkaesque Koffka","3.2.8","['vert', 'hori', 'hori', 'vert', 'vert', 'vert', 'hori', 'hori']","no",200,"None","no",0,NA,2,"legacy",NA,1024,2,48000,-16,"experiment",2,"even","green","no",6,"diamond",141500.7695,691857.0817,691857.1398,NA,691862.316,37185.2591,1379.6852,604664.817,37185.2902,728869.163,731429.8936,NA,NA,NA,1380.7122,692731.5635,604155.1691,NA,728869.18,693233.3953,728869.1097,"New experiment",19,"dist_absent",56,79,"yes","no",1680,15.6723494871792,9.21785871794887,"more away","False","NR","R","lp",NA,"Right",NA,"Right",2,NA,"first",7,"NR","in"
"71",127,127,127,972.2521,12274.7532,154556.558,12,95,"#000000","no",3,"bias","psycho","psycho","psycho",0,"uniform",1,0,2,2,NA,2,0,0,2,0,126,126,NA,NA,NA,0,2,2,NA,126,2,126,82.99359367,"12/14/20 12:50:32","The main experiment item","yes","green","no","2","circle",NA,"pinging_target_expectations.osexp","C:\Users\etp-cp-ping\Desktop\DATA\data","no","mono","no",18,"no","white","no","yes",1050,NA,0,"psycho",14,2,14,"C:/Users/etp-cp-ping/Desktop/DATA/data/subject-2.csv","psycho",1,127,15,"Kafkaesque Koffka","3.2.8","['hori', 'hori', 'vert', 'vert', 'hori', 'vert', 'vert', 'hori']","yes",100,"diamond","no",0,NA,2,"legacy",NA,1024,2,48000,-16,"experiment",2,"even","red","no",7,"diamond",141500.7695,691857.0817,691857.1398,NA,691862.316,37185.2591,1379.6852,604664.817,37185.2902,731460.0084,734518.1755,NA,NA,NA,1380.7122,692731.5635,604155.1691,NA,731460.0248,693233.3953,731459.956,"New experiment",19,"dist_present",56,83,"yes","yes",1680,10.4430994871793,-0.710016282051119,"more toward","False","NR","NR","lp",NA,NA,NA,NA,1,-2,"first",6,"NR","in"
"72",128,128,128,943.9971,13218.7503,155500.5551,12,95,"#000000","no",3,"bias","psycho","psycho","psycho",0,"uniform",0,0,2,2,NA,2,0,0,2,0,127,127,NA,NA,NA,0,2,2,NA,127,2,127,82.99359367,"12/14/20 12:50:32","The main experiment item","yes","red","no","3","diamond",NA,"pinging_target_expectations.osexp","C:\Users\etp-cp-ping\Desktop\DATA\data","no","mono","no",18,"no","white","no","yes",1050,NA,0,"psycho",15,2,15,"C:/Users/etp-cp-ping/Desktop/DATA/data/subject-2.csv","psycho",1,128,16,"Kafkaesque Koffka","3.2.8","['vert', 'vert', 'hori', 'hori', 'hori', 'hori', 'vert', 'vert']","yes",100,"circles","no",0,NA,2,"legacy",NA,1024,2,48000,-16,"experiment",2,"even","green","no",2,"circle",141500.7695,691857.0817,691857.1398,NA,691862.316,37185.2591,1379.6852,604664.817,37185.2902,734548.4239,737333.97,NA,NA,NA,1380.7122,692731.5635,604155.1691,NA,734548.4407,693233.3953,734548.3706,"New experiment",19,"dist_present",56,34,"yes","yes",1680,22.2675994871793,-6.87676628205114,"more toward","False","NR","NR","lp",NA,NA,NA,NA,-2,-3,"first",7,"NR","in"
"73",129,129,129,624.5789,13843.3292,156125.134,13,96,"#000000","no",3,"bias","psycho","psycho","psycho",0,"uniform",1,0,2,2,NA,2,0,0,2,0,128,128,NA,NA,NA,0,2,2,NA,128,2,128,82.99359367,"12/14/20 12:50:32","The main experiment item","yes","green","yes","0","circle",NA,"pinging_target_expectations.osexp","C:\Users\etp-cp-ping\Desktop\DATA\data","no","mono","no",18,"no","white","no","yes",1050,NA,0,"psycho",16,2,16,"C:/Users/etp-cp-ping/Desktop/DATA/data/subject-2.csv","psycho",1,129,17,"Kafkaesque Koffka","3.2.8","['vert', 'hori', 'vert', 'vert', 'hori', 'hori', 'hori', 'vert']","no",200,"None","no",0,NA,2,"legacy",NA,1024,2,48000,-16,"experiment",2,"even","red","no",4,"diamond",141500.7695,691857.0817,691857.1398,NA,691862.316,37185.2591,1379.6852,604664.817,37185.2902,737364.0483,739653.9391,NA,NA,NA,1380.7122,692731.5635,604155.1691,NA,737364.0651,693233.3953,737363.9966,"New experiment",19,"dist_present",56,51,"yes","yes",1680,10.8002244871793,11.1612337179489,"more away","False","NR","NR","lp",NA,NA,NA,NA,4,0,"first",2,"NR","in"
"74",130,130,130,594.6088,14437.938,156719.7428,14,97,"#000000","no",3,"bias","psycho","psycho","psycho",0,"uniform",1,0,2,2,NA,2,0,0,2,0,129,129,NA,NA,NA,0,2,2,NA,129,2,129,82.99359367,"12/14/20 12:50:32","The main experiment item","yes","red","no","5","circle",NA,"pinging_target_expectations.osexp","C:\Users\etp-cp-ping\Desktop\DATA\data","no","mono","no",18,"no","white","no","yes",1050,NA,0,"psycho",17,2,17,"C:/Users/etp-cp-ping/Desktop/DATA/data/subject-2.csv","psycho",1,130,18,"Kafkaesque Koffka","3.2.8","['hori', 'vert', 'vert', 'hori', 'hori', 'vert', 'vert', 'hori']","no",200,"None","no",0,NA,2,"legacy",NA,1024,2,48000,-16,"experiment",2,"even","green","yes",0,"diamond",141500.7695,691857.0817,691857.1398,NA,691862.316,37185.2591,1379.6852,604664.817,37185.2902,739683.9711,742158.2509,NA,NA,NA,1380.7122,692731.5635,604155.1691,NA,739683.9881,693233.3953,739683.9173,"New experiment",19,"dist_present",56,16,"yes","yes",1680,8.57922448717922,12.1551087179489,"more away","False","NR","NR","lp","Right",NA,NA,NA,0,3,"first",4,"NR","ex"
"75",131,131,131,869.0923,15307.0303,157588.8351,15,98,"#000000","no",3,"bias","psycho","psycho","psycho",0,"uniform",1,0,2,2,NA,2,0,0,2,0,130,130,NA,NA,NA,0,2,2,NA,130,2,130,82.99359367,"12/14/20 12:50:32","The main experiment item","yes","green","no","2","diamond",NA,"pinging_target_expectations.osexp","C:\Users\etp-cp-ping\Desktop\DATA\data","no","mono","no",18,"no","white","no","yes",1050,NA,0,"psycho",18,2,18,"C:/Users/etp-cp-ping/Desktop/DATA/data/subject-2.csv","psycho",1,131,19,"Kafkaesque Koffka","3.2.8","['vert', 'vert', 'hori', 'hori', 'vert', 'hori', 'vert', 'hori']","yes",100,"diamond","no",0,NA,2,"legacy",NA,1024,2,48000,-16,"experiment",2,"even","red","yes",0,"circle",141500.7695,691857.0817,691857.1398,NA,691862.316,37185.2591,1379.6852,604664.817,37185.2902,742188.5659,744949.9269,NA,NA,NA,1380.7122,692731.5635,604155.1691,NA,742188.5828,693233.3953,742188.512,"New experiment",19,"dist_present",56,13,"yes","yes",1680,13.9312244871793,9.46810871794889,"more away","False","R","NR","hp","Left",NA,"Left",NA,0,-2,"first",0,"NR","ex"
"76",132,132,132,781.7341,16088.7644,158370.5692,16,99,"#000000","no",3,"bias","psycho","psycho","psycho",0,"uniform",1,0,2,2,NA,2,0,0,2,0,131,131,NA,NA,NA,0,2,2,NA,131,2,131,82.99359367,"12/14/20 12:50:32","The main experiment item","yes","red","no","4","diamond",NA,"pinging_target_expectations.osexp","C:\Users\etp-cp-ping\Desktop\DATA\data","no","mono","no",18,"no","white","no","yes",1050,NA,0,"psycho",19,2,19,"C:/Users/etp-cp-ping/Desktop/DATA/data/subject-2.csv","psycho",1,132,20,"Kafkaesque Koffka","3.2.8","['vert', 'hori', 'vert', 'hori', 'vert', 'hori', 'hori', 'vert']","yes",100,"diamond","no",0,NA,2,"legacy",NA,1024,2,48000,-16,"experiment",2,"even","green","no",6,"circle",141500.7695,691857.0817,691857.1398,NA,691862.316,37185.2591,1379.6852,604664.817,37185.2902,744980.6374,747438.0527,NA,NA,NA,1380.7122,692731.5635,604155.1691,NA,744980.6541,693233.3953,744980.5843,"New experiment",19,"dist_present",56,75,"yes","yes",1680,NA,NA,"no hp","True","NR","NR","hp",NA,"Right",NA,"Right",2,4,"first",0,"R","in"
"77",133,133,133,687.5714,16776.3358,159058.1406,17,100,"#000000","no",3,"bias","psycho","psycho","psycho",0,"uniform",1,0,2,2,NA,2,0,0,2,0,132,132,NA,NA,NA,0,2,2,NA,132,2,132,82.99359367,"12/14/20 12:50:32","The main experiment item","yes","green","no","5","diamond",NA,"pinging_target_expectations.osexp","C:\Users\etp-cp-ping\Desktop\DATA\data","no","mono","no",18,"no","white","no","yes",1050,NA,0,"psycho",20,2,20,"C:/Users/etp-cp-ping/Desktop/DATA/data/subject-2.csv","psycho",1,133,21,"Kafkaesque Koffka","3.2.8","['hori', 'vert', 'hori', 'vert', 'vert', 'hori', 'hori', 'vert']","yes",100,"diamond","no",0,NA,2,"legacy",NA,1024,2,48000,-16,"experiment",2,"even","red","yes",0,"circle",141500.7695,691857.0817,691857.1398,NA,691862.316,37185.2591,1379.6852,604664.817,37185.2902,747468.0912,750142.1096,NA,NA,NA,1380.7122,692731.5635,604155.1691,NA,747468.1078,693233.3953,747468.0385,"New experiment",19,"dist_present",56,16,"yes","yes",1680,5.10384948717929,-8.24426628205114,"more toward","False","NR","NR","lp","Right",NA,NA,NA,0,3,"first",6,"NR","ex"
"78",134,134,134,582.3326,17358.6684,159640.4732,18,101,"#000000","no",3,"bias","psycho","psycho","psycho",0,"uniform",1,0,2,2,NA,2,0,0,2,0,133,133,NA,NA,NA,0,2,2,NA,133,2,133,82.99359367,"12/14/20 12:50:32","The main experiment item","yes","green","no","1","circle",NA,"pinging_target_expectations.osexp","C:\Users\etp-cp-ping\Desktop\DATA\data","no","mono","no",18,"no","white","no","yes",1050,NA,0,"psycho",21,2,21,"C:/Users/etp-cp-ping/Desktop/DATA/data/subject-2.csv","psycho",1,134,22,"Kafkaesque Koffka","3.2.8","['hori', 'vert', 'hori', 'vert', 'vert', 'hori', 'hori', 'vert']","no",200,"None","no",0,NA,2,"legacy",NA,1024,2,48000,-16,"experiment",2,"even","red","yes",0,"diamond",141500.7695,691857.0817,691857.1398,NA,691862.316,37185.2591,1379.6852,604664.817,37185.2902,750169.9735,752685.8881,NA,NA,NA,1380.7122,692731.5635,604155.1691,NA,750169.9898,693233.3953,750169.9212,"New experiment",19,"dist_present",56,12,"yes","yes",1680,9.18459948717927,4.26660871794895,"more toward","False","R","NR","hp","Left",NA,NA,NA,0,-1,"first",0,"NR","ex"
"79",135,135,135,1053.7443,18412.4127,160694.2175,19,102,"#000000","no",3,"bias","psycho","psycho","psycho",0,"uniform",1,0,2,2,NA,2,0,0,2,0,134,134,NA,NA,NA,0,2,2,NA,134,2,134,82.99359367,"12/14/20 12:50:32","The main experiment item","yes","green","no","None","diamond",NA,"pinging_target_expectations.osexp","C:\Users\etp-cp-ping\Desktop\DATA\data","no","mono","no",18,"no","white","no","yes",1050,NA,0,"psycho",22,2,22,"C:/Users/etp-cp-ping/Desktop/DATA/data/subject-2.csv","psycho",1,135,23,"Kafkaesque Koffka","3.2.8","['hori', 'vert', 'vert', 'hori', 'hori', 'vert', 'vert', 'hori']","no",200,"None","no",0,NA,2,"legacy",NA,1024,2,48000,-16,"experiment",2,"even","red","yes",0,"circle",141500.7695,691857.0817,691857.1398,NA,691862.316,37185.2591,1379.6852,604664.817,37185.2902,752715.8533,755630.1662,NA,NA,NA,1380.7122,692731.5635,604155.1691,NA,752715.8701,693233.3953,752715.8,"New experiment",19,"dist_absent",56,19,"yes","yes",1680,8.67459948717927,-2.54839128205113,"more toward","False","R","NR","hp",NA,NA,NA,NA,0,NA,"first",0,"R","ex"
"80",136,136,136,981.3686,19393.7813,161675.5861,20,103,"#000000","no",3,"bias","psycho","psycho","psycho",0,"uniform",1,0,2,2,NA,2,0,0,2,0,135,135,NA,NA,NA,0,2,2,NA,135,2,135,82.99359367,"12/14/20 12:50:32","The main experiment item","yes","green","no","None","diamond",NA,"pinging_target_expectations.osexp","C:\Users\etp-cp-ping\Desktop\DATA\data","no","mono","no",18,"no","white","no","yes",1050,NA,0,"psycho",23,2,23,"C:/Users/etp-cp-ping/Desktop/DATA/data/subject-2.csv","psycho",1,136,24,"Kafkaesque Koffka","3.2.8","['hori', 'hori', 'hori', 'hori', 'vert', 'vert', 'vert', 'vert']","no",200,"None","no",0,NA,2,"legacy",NA,1024,2,48000,-16,"experiment",2,"even","red","yes",0,"circle",141500.7695,691857.0817,691857.1398,NA,691862.316,37185.2591,1379.6852,604664.817,37185.2902,755660.2495,758518.2217,NA,NA,NA,1380.7122,692731.5635,604155.1691,NA,755660.2665,693233.3953,755660.1973,"New experiment",19,"dist_absent",56,19,"yes","yes",1680,3.45972448717922,2.97023371794891,"more toward","False","R","R","hp",NA,NA,NA,NA,0,NA,"first",0,"R","ex"
"81",137,137,137,559.078,19952.8593,162234.6641,21,104,"#000000","no",3,"bias","psycho","psycho","psycho",0,"uniform",1,0,2,2,NA,2,0,0,2,0,136,136,NA,NA,NA,0,2,2,NA,136,2,136,82.99359367,"12/14/20 12:50:32","The main experiment item","yes","green","no","5","circle",NA,"pinging_target_expectations.osexp","C:\Users\etp-cp-ping\Desktop\DATA\data","no","mono","no",18,"no","white","no","yes",1050,NA,0,"psycho",24,2,24,"C:/Users/etp-cp-ping/Desktop/DATA/data/subject-2.csv","psycho",2,137,25,"Kafkaesque Koffka","3.2.8","['vert', 'vert', 'vert', 'hori', 'hori', 'hori', 'vert', 'hori']","yes",100,"circles","no",0,NA,2,"legacy",NA,1024,2,48000,-16,"experiment",2,"even","red","yes",0,"diamond",141500.7695,691857.0817,691857.1398,NA,691862.316,37185.2591,1379.6852,604664.817,37185.2902,758548.3882,761093.8838,NA,NA,NA,1380.7122,692731.5635,604155.1691,NA,758548.4052,693233.3953,758548.3348,"New experiment",19,"dist_present",56,16,"yes","no",1680,3.62622448717934,12.308483717949,"more away","False","R","NR","hp","Right",NA,NA,NA,0,3,"first",0,"R","ex"
"82",138,138,138,642.45,20595.3093,162877.1141,21,104,"#000000","no",3,"bias","psycho","psycho","psycho",0,"uniform",0,0,2,2,NA,2,0,0,2,0,137,137,NA,NA,NA,0,2,2,NA,137,2,137,82.99359367,"12/14/20 12:50:32","The main experiment item","yes","green","no","None","diamond",NA,"pinging_target_expectations.osexp","C:\Users\etp-cp-ping\Desktop\DATA\data","no","mono","no",18,"no","white","no","yes",1050,NA,0,"psycho",25,2,25,"C:/Users/etp-cp-ping/Desktop/DATA/data/subject-2.csv","psycho",3,138,26,"Kafkaesque Koffka","3.2.8","['hori', 'vert', 'hori', 'vert', 'hori', 'hori', 'vert', 'vert']","no",200,"None","no",0,NA,2,"legacy",NA,1024,2,48000,-16,"experiment",2,"even","red","no",7,"circle",141500.7695,691857.0817,691857.1398,NA,691862.316,37185.2591,1379.6852,604664.817,37185.2902,761124.263,763821.9175,NA,NA,NA,1380.7122,692731.5635,604155.1691,NA,761124.2798,693233.3953,761124.21,"New experiment",19,"dist_absent",56,89,"yes","no",1680,3.45409948717937,4.74298371794885,"more toward","False","NR","NR","hp",NA,"Right",NA,NA,1,NA,"first",0,"R","in"
"83",139,139,139,557.8976,21153.2069,163435.0117,22,105,"#000000","no",3,"bias","psycho","psycho","psycho",0,"uniform",1,0,2,2,NA,2,0,0,2,0,138,138,NA,NA,NA,0,2,2,NA,138,2,138,82.99359367,"12/14/20 12:50:32","The main experiment item","yes","green","no","2","circle",NA,"pinging_target_expectations.osexp","C:\Users\etp-cp-ping\Desktop\DATA\data","no","mono","no",18,"no","white","no","yes",1050,NA,0,"psycho",26,2,26,"C:/Users/etp-cp-ping/Desktop/DATA/data/subject-2.csv","psycho",3,139,27,"Kafkaesque Koffka","3.2.8","['hori', 'hori', 'vert', 'hori', 'vert', 'vert', 'hori', 'vert']","yes",100,"circles","no",0,NA,2,"legacy",NA,1024,2,48000,-16,"experiment",2,"even","red","yes",0,"diamond",141500.7695,691857.0817,691857.1398,NA,691862.316,37185.2591,1379.6852,604664.817,37185.2902,763851.9647,766205.9129,NA,NA,NA,1380.7122,692731.5635,604155.1691,NA,763851.9817,693233.3953,763851.9114,"New experiment",19,"dist_present",56,13,"yes","yes",1680,3.19609948717921,-2.2237662820511,"more toward","False","NR","NR","lp","Left",NA,"Left",NA,0,-2,"first",7,"NR","ex"
"84",140,140,140,1692.1179,22845.3248,165127.1296,23,106,"#000000","no",3,"bias","psycho","psycho","psycho",0,"uniform",1,0,2,2,NA,2,0,0,2,0,139,139,NA,NA,NA,0,2,2,NA,139,2,139,82.99359367,"12/14/20 12:50:32","The main experiment item","yes","red","no","4","diamond",NA,"pinging_target_expectations.osexp","C:\Users\etp-cp-ping\Desktop\DATA\data","no","mono","no",18,"no","white","no","yes",1050,NA,0,"psycho",27,2,27,"C:/Users/etp-cp-ping/Desktop/DATA/data/subject-2.csv","psycho",3,140,28,"Kafkaesque Koffka","3.2.8","['vert', 'hori', 'vert', 'hori', 'vert', 'hori', 'hori', 'vert']","no",200,"None","no",0,NA,2,"legacy",NA,1024,2,48000,-16,"experiment",2,"even","green","no",5,"circle",141500.7695,691857.0817,691857.1398,NA,691862.316,37185.2591,1379.6852,604664.817,37185.2902,766235.8641,769718.3435,NA,NA,NA,1380.7122,692731.5635,604155.1691,NA,766235.8809,693233.3953,766235.8119,"New experiment",19,"dist_present",56,65,"yes","yes",1680,-0.186275512820674,-3.45414128205117,"more toward","False","NR","NR","hp",NA,"Right",NA,NA,3,4,"first",0,"NR","in"
"85",141,141,141,591.2635,23436.5883,165718.3931,24,107,"#000000","no",3,"bias","psycho","psycho","psycho",0,"uniform",1,0,2,2,NA,2,0,0,2,0,140,140,NA,NA,NA,0,2,2,NA,140,2,140,82.99359367,"12/14/20 12:50:32","The main experiment item","yes","green","yes","0","circle",NA,"pinging_target_expectations.osexp","C:\Users\etp-cp-ping\Desktop\DATA\data","no","mono","no",18,"no","white","no","yes",1050,NA,0,"psycho",28,2,28,"C:/Users/etp-cp-ping/Desktop/DATA/data/subject-2.csv","psycho",4,141,29,"Kafkaesque Koffka","3.2.8","['hori', 'vert', 'vert', 'hori', 'hori', 'vert', 'vert', 'hori']","no",200,"None","no",0,NA,2,"legacy",NA,1024,2,48000,-16,"experiment",2,"even","red","no",4,"diamond",141500.7695,691857.0817,691857.1398,NA,691862.316,37185.2591,1379.6852,604664.817,37185.2902,769748.5237,772093.8405,NA,NA,NA,1380.7122,692731.5635,604155.1691,NA,769748.5404,693233.3953,769748.4707,"New experiment",19,"dist_present",56,51,"yes","no",1680,9.38772448717928,16.9684837179489,"more away","False","NR","NR","lp",NA,NA,NA,NA,4,0,"first",5,"NR","in"
"86",142,142,142,1158.7692,24595.3575,166877.1623,25,108,"#000000","no",3,"bias","psycho","psycho","psycho",0,"uniform",1,0,2,2,NA,2,0,0,2,0,141,141,NA,NA,NA,0,2,2,NA,141,2,141,82.99359367,"12/14/20 12:50:32","The main experiment item","yes","red","no","None","diamond",NA,"pinging_target_expectations.osexp","C:\Users\etp-cp-ping\Desktop\DATA\data","no","mono","no",18,"no","white","no","yes",1050,NA,0,"psycho",29,2,29,"C:/Users/etp-cp-ping/Desktop/DATA/data/subject-2.csv","psycho",4,142,30,"Kafkaesque Koffka","3.2.8","['vert', 'hori', 'vert', 'vert', 'hori', 'hori', 'hori', 'vert']","yes",100,"circles","no",0,NA,2,"legacy",NA,1024,2,48000,-16,"experiment",2,"even","green","no",1,"circle",141500.7695,691857.0817,691857.1398,NA,691862.316,37185.2591,1379.6852,604664.817,37185.2902,772123.7752,775150.1991,NA,NA,NA,1380.7122,692731.5635,604155.1691,NA,772123.7924,693233.3953,772123.7217,"New experiment",19,"dist_absent",56,29,"yes","yes",1680,13.8989744871793,6.37898371794891,"more toward","False","NR","NR","lp",NA,"Left",NA,NA,-1,NA,"first",4,"NR","in"
"87",143,143,143,1319.0933,25914.4508,168196.2556,26,109,"#000000","no",3,"bias","psycho","psycho","psycho",0,"uniform",1,0,2,2,NA,2,0,0,2,0,142,142,NA,NA,NA,0,2,2,NA,142,2,142,82.99359367,"12/14/20 12:50:32","The main experiment item","yes","red","yes","0","diamond",NA,"pinging_target_expectations.osexp","C:\Users\etp-cp-ping\Desktop\DATA\data","no","mono","no",18,"no","white","no","yes",1050,NA,0,"psycho",30,2,30,"C:/Users/etp-cp-ping/Desktop/DATA/data/subject-2.csv","psycho",4,143,31,"Kafkaesque Koffka","3.2.8","['vert', 'hori', 'vert', 'vert', 'hori', 'hori', 'hori', 'vert']","no",200,"None","no",0,NA,2,"legacy",NA,1024,2,48000,-16,"experiment",2,"even","green","no",4,"circle",141500.7695,691857.0817,691857.1398,NA,691862.316,37185.2591,1379.6852,604664.817,37185.2902,775177.9502,778245.9345,NA,NA,NA,1380.7122,692731.5635,604155.1691,NA,775177.9668,693233.3953,775177.8964,"New experiment",19,"dist_present",56,51,"yes","yes",1680,0.951599487179398,7.6339837179489,"more away","False","NR","NR","lp",NA,NA,NA,NA,4,0,"first",1,"NR","in"
"88",144,144,144,835.622,26750.0728,169031.8776,26,109,"#000000","no",3,"bias","psycho","psycho","psycho",0,"uniform",0,0,2,2,NA,2,0,0,2,0,143,143,NA,NA,NA,0,2,2,NA,143,2,143,82.99359367,"12/14/20 12:50:32","The main experiment item","yes","red","yes","0","circle",NA,"pinging_target_expectations.osexp","C:\Users\etp-cp-ping\Desktop\DATA\data","no","mono","no",18,"no","white","no","yes",1050,NA,0,"psycho",31,2,31,"C:/Users/etp-cp-ping/Desktop/DATA/data/subject-2.csv","psycho",4,144,32,"Kafkaesque Koffka","3.2.8","['hori', 'vert', 'vert', 'hori', 'vert', 'hori', 'hori', 'vert']","yes",100,"diamond","no",0,NA,2,"legacy",NA,1024,2,48000,-16,"experiment",2,"even","green","no",3,"diamond",141500.7695,691857.0817,691857.1398,NA,691862.316,37185.2591,1379.6852,604664.817,37185.2902,778276.0196,781109.977,NA,NA,NA,1380.7122,692731.5635,604155.1691,NA,778276.0376,693233.3953,778275.9662,"New experiment",19,"dist_present",56,41,"yes","yes",1680,2.08759948717913,13.091608717949,"more away","False","NR","R","lp",NA,"Left",NA,NA,-3,0,"first",4,"NR","in"
"89",145,145,145,920.3777,27670.4505,169952.2553,27,110,"#000000","no",3,"bias","psycho","psycho","psycho",0,"uniform",1,0,2,2,NA,2,0,0,2,0,144,144,NA,NA,NA,0,2,2,NA,144,2,144,82.99359367,"12/14/20 12:50:32","The main experiment item","yes","red","no","None","diamond",NA,"pinging_target_expectations.osexp","C:\Users\etp-cp-ping\Desktop\DATA\data","no","mono","no",18,"no","white","no","yes",1050,NA,0,"psycho",32,2,32,"C:/Users/etp-cp-ping/Desktop/DATA/data/subject-2.csv","psycho",5,145,33,"Kafkaesque Koffka","3.2.8","['vert', 'hori', 'hori', 'vert', 'hori', 'vert', 'hori', 'vert']","no",200,"None","no",0,NA,2,"legacy",NA,1024,2,48000,-16,"experiment",2,"even","green","no",6,"circle",141500.7695,691857.0817,691857.1398,NA,691862.316,37185.2591,1379.6852,604664.817,37185.2902,781141.5313,784165.9966,NA,NA,NA,1380.7122,692731.5635,604155.1691,NA,781141.548,693233.3953,781141.4787,"New experiment",19,"dist_absent",56,79,"yes","no",1680,NA,NA,"no hp","True","NR","NR","lp",NA,"Right",NA,"Right",2,NA,"first",3,"NR","in"
"90",146,146,146,1049.1728,28719.6233,171001.4281,28,111,"#000000","no",3,"bias","psycho","psycho","psycho",0,"uniform",1,0,2,2,NA,2,0,0,2,0,145,145,NA,NA,NA,0,2,2,NA,145,2,145,82.99359367,"12/14/20 12:50:32","The main experiment item","yes","green","no","6","circle",NA,"pinging_target_expectations.osexp","C:\Users\etp-cp-ping\Desktop\DATA\data","no","mono","no",18,"no","white","no","yes",1050,NA,0,"psycho",33,2,33,"C:/Users/etp-cp-ping/Desktop/DATA/data/subject-2.csv","psycho",5,146,34,"Kafkaesque Koffka","3.2.8","['hori', 'vert', 'hori', 'vert', 'vert', 'hori', 'hori', 'vert']","no",200,"None","no",0,NA,2,"legacy",NA,1024,2,48000,-16,"experiment",2,"even","red","no",3,"diamond",141500.7695,691857.0817,691857.1398,NA,691862.316,37185.2591,1379.6852,604664.817,37185.2902,784196.2078,787205.9366,NA,NA,NA,1380.7122,692731.5635,604155.1691,NA,784196.2247,693233.3953,784196.1545,"New experiment",19,"dist_present",56,47,"yes","yes",1680,4.66059948717934,4.97560871794889,"more toward","False","NR","NR","lp",NA,NA,NA,NA,-3,2,"first",6,"NR","in"
"91",147,147,147,2000.7004,30720.3237,173002.1285,28,111,"#000000","no",3,"bias","psycho","psycho","psycho",0,"uniform",0,0,2,2,NA,2,0,0,2,0,146,146,NA,NA,NA,0,2,2,NA,146,2,146,82.99359367,"12/14/20 12:50:32","The main experiment item","yes","green","no","4","diamond",NA,"pinging_target_expectations.osexp","C:\Users\etp-cp-ping\Desktop\DATA\data","no","mono","no",18,"no","white","no","yes",1050,NA,0,"psycho",34,2,34,"C:/Users/etp-cp-ping/Desktop/DATA/data/subject-2.csv","psycho",6,147,35,"Kafkaesque Koffka","3.2.8","['vert', 'hori', 'vert', 'hori', 'hori', 'vert', 'vert', 'hori']","yes",100,"circles","no",0,NA,2,"legacy",NA,1024,2,48000,-16,"experiment",2,"even","red","no",2,"circle",141500.7695,691857.0817,691857.1398,NA,691862.316,37185.2591,1379.6852,604664.817,37185.2902,787236.0011,791052.5098,NA,NA,NA,1380.7122,692731.5635,604155.1691,NA,787236.0181,693233.3953,787235.9497,"New experiment",19,"dist_present",56,35,"yes","no",1680,4.13384948717928,-7.04239128205114,"more toward","False","NR","NR","lp",NA,"Left",NA,"Left",-2,4,"first",3,"NR","in"
"92",148,148,148,1357.469,32077.7927,174359.5975,29,112,"#000000","no",3,"bias","psycho","psycho","psycho",0,"uniform",1,0,2,2,NA,2,0,0,2,0,147,147,NA,NA,NA,0,2,2,NA,147,2,147,82.99359367,"12/14/20 12:50:32","The main experiment item","yes","green","no","6","diamond",NA,"pinging_target_expectations.osexp","C:\Users\etp-cp-ping\Desktop\DATA\data","no","mono","no",18,"no","white","no","yes",1050,NA,0,"psycho",35,2,35,"C:/Users/etp-cp-ping/Desktop/DATA/data/subject-2.csv","psycho",6,148,36,"Kafkaesque Koffka","3.2.8","['hori', 'hori', 'vert', 'hori', 'vert', 'hori', 'vert', 'vert']","no",200,"None","no",0,NA,2,"legacy",NA,1024,2,48000,-16,"experiment",2,"even","red","no",1,"circle",141500.7695,691857.0817,691857.1398,NA,691862.316,37185.2591,1379.6852,604664.817,37185.2902,791083.3678,794309.9612,NA,NA,NA,1380.7122,692731.5635,604155.1691,NA,791083.3848,693233.3953,791083.3132,"New experiment",19,"dist_present",56,27,"yes","yes",1680,10.5148494871792,-9.94076628205115,"more toward","False","NR","NR","lp",NA,NA,NA,NA,-1,2,"first",2,"NR","in"
"93",149,149,149,661.8446,32739.6373,175021.4421,30,113,"#000000","no",3,"bias","psycho","psycho","psycho",0,"uniform",1,0,2,2,NA,2,0,0,2,0,148,148,NA,NA,NA,0,2,2,NA,148,2,148,82.99359367,"12/14/20 12:50:32","The main experiment item","yes","green","no","2","diamond",NA,"pinging_target_expectations.osexp","C:\Users\etp-cp-ping\Desktop\DATA\data","no","mono","no",18,"no","white","no","yes",1050,NA,0,"psycho",36,2,36,"C:/Users/etp-cp-ping/Desktop/DATA/data/subject-2.csv","psycho",6,149,37,"Kafkaesque Koffka","3.2.8","['hori', 'hori', 'vert', 'vert', 'vert', 'hori', 'hori', 'vert']","no",200,"None","no",0,NA,2,"legacy",NA,1024,2,48000,-16,"experiment",2,"even","red","no",7,"circle",141500.7695,691857.0817,691857.1398,NA,691862.316,37185.2591,1379.6852,604664.817,37185.2902,794340.6773,796942.3591,NA,NA,NA,1380.7122,692731.5635,604155.1691,NA,794340.6943,693233.3953,794340.6238,"New experiment",19,"dist_present",56,83,"yes","yes",1680,11.5099744871793,-0.854016282051131,"more toward","False","NR","NR","lp",NA,NA,NA,NA,1,-2,"first",1,"NR","in"
