"","RT","RT_bl","RT_tot","acc_bl","acc_tot","answer_debrief_1","answer_debrief_2","answer_debrief_3","answer_debrief_4","background","bidi","blink_onset","block_cnt","block_type","canvas_backend","clock_backend","color_backend","compensation","coordinates","correct","count_block_loop","count_block_seq","count_block_settings","count_check_session","count_drift_correct","count_end_loop","count_end_seq","count_exp_settings","count_experiment","count_feedback","count_instructions","count_log_variables","count_logger","count_new_inline_script","count_new_pygaze_drift_correct","count_new_pygaze_start_recording","count_new_pygaze_stop_recording","count_pygaze","count_start_recording","count_stop_recording","count_test_location","count_trial","count_trial_loop","count_trial_seq","d_eye","datetime","description","disable_garbage_collection","dist_color","dist_high","dist_loc","dist_shape","empty_column","experiment_file","experiment_path","eye_threshold_length","font_bold","font_family","font_italic","font_size","font_underline","foreground","form_clicks","fullscreen","height","high_loc","high_prob_loc","keyboard_backend","live_row","live_row_block_loop","live_row_trial_loop","logfile","mouse_backend","nr_blinks","nr_trials","nr_trials_bl","opensesame_codename","opensesame_version","orient_list_trial","ping","ping_trigger","ping_type","practice","repeat_cycle","response","round_decimals","sampler_backend","session_nr","sound_buf_size","sound_channels","sound_freq","sound_sample_size","start","subject_nr","subject_parity","target_color","target_high","target_loc","target_shape","time_block_loop","time_block_seq","time_block_settings","time_check_session","time_drift_correct","time_end_loop","time_end_seq","time_exp_settings","time_experiment","time_feedback","time_instructions","time_log_variables","time_logger","time_new_inline_script","time_new_pygaze_drift_correct","time_new_pygaze_start_recording","time_new_pygaze_stop_recording","time_pygaze","time_start_recording","time_stop_recording","time_test_location","time_trial","time_trial_loop","time_trial_seq","title","total_blocks","tracker_dev","trial_type","trials_in_block","trigger","uniform_coordinates","update_blinks","width","x","y","toward","containsNaN","rept","repd","prevtar","pd","nt","pd_c","nt_c","tar_dist","dist_dist","prevHP","eegTar","repteeg","tarcounter"
"1",1868.04080000002,1868.04080000002,1868.04080000002,1,1,"y",3,"['6', '6', 'space']","n","#000000","no",1425.14940000183,1,"neutral","psycho","psycho","psycho",0,"uniform",1,0,0,0,NA,0,0,NA,0,0,0,0,0,0,NA,NA,NA,NA,0,0,0,NA,0,0,0,73.2296414732588,"Thu Oct  7 15:29:32 2021","The main experiment item","yes","red","no","6","diamond",NA,"pinging_target_expectations 4.0.osexp","C:\Users\etp-cp-ping\Desktop\LocalPC-EXP",75,"no","mono","no",18,"no","white","no","yes",1050,NA,100,"psycho",0,0,0,"C:/Users/etp-cp-ping/Desktop/LocalPC-EXP/subject-24.csv","psycho",0,1,1,"Lentiform Loewenfeld","3.3.8","['hori', 'hori', 'vert', 'vert', 'vert', 'vert', 'hori', 'hori']","no",209,"None","yes",0,NA,2,"legacy",NA,1024,2,48000,-16,"experiment",24,"even","green","no",0,"circle",393859.501800001,393886.752400002,393886.792000001,NA,402851.524200003,NA,NA,77606.0724000017,1429.95100000189,NA,77606.0940000025,404039.258500001,407796.3084,NA,NA,NA,NA,1430.02820000038,403663.955,NA,NA,404039.275700001,404034.921400002,404039.182100001,"New experiment",19,"[0, 73.66139456869814, 73.4863932983515, 73.50278504369942, 74.2428608862756, 74.34923880931152, 75.8662757707043, 73.75777334232647, 73.34310375161361, 73.68128745877293, 73.8740741931222, 75.04377389556655, 73.47251814693817, 74.96032043616653, 75.07441686505189, 73.30246028336632, 75.02492605000516, 73.80473936830077, 74.08818485103762, 73.32461790602552, 73.3240011225863, 73.84339632070376, 73.40843706831447]","dist_present",56,17,"yes","yes",1680,NA,NA,NA,NA,"NR","NR","lp","Right",NA,"Right",NA,NA,NA,"practice",999,"NR","in"
"2",2000.35479999863,3868.39559999865,3868.39559999865,1,1,"y",3,"['6', '6', 'space']","n","#000000","no",1425.14940000183,1,"neutral","psycho","psycho","psycho",0,"uniform",0,0,0,0,NA,0,0,NA,0,0,0,0,1,1,NA,NA,NA,NA,0,0,0,NA,1,0,1,73.2296414732588,"Thu Oct  7 15:29:32 2021","The main experiment item","yes","red","no","6","diamond",NA,"pinging_target_expectations 4.0.osexp","C:\Users\etp-cp-ping\Desktop\LocalPC-EXP",75,"no","mono","no",18,"no","white","no","yes",1050,NA,100,"psycho",1,0,1,"C:/Users/etp-cp-ping/Desktop/LocalPC-EXP/subject-24.csv","psycho",0,2,2,"Lentiform Loewenfeld","3.3.8","['vert', 'vert', 'hori', 'hori', 'vert', 'hori', 'vert', 'hori']","yes",109,"circles","yes",0,NA,2,"legacy",NA,1024,2,48000,-16,"experiment",24,"even","green","no",1,"circle",393859.501800001,393886.752400002,393886.792000001,NA,402851.524200003,NA,NA,77606.0724000017,1429.95100000189,NA,77606.0940000025,407835.672900001,411816.192100003,NA,NA,NA,NA,1430.02820000038,403663.955,NA,NA,407835.687800001,404034.921400002,407835.624000003,"New experiment",19,"[0, 73.75318115822076, 73.38833718424688, 73.3698050193301, 73.62879166740773, 74.65773910193637, 74.54852102694583, 74.33982548621505, 74.68125686511492, 75.16648189186454, 75.1598978129854, 73.85615534354062, 73.84972521318409, 73.93273396548726, 74.95632549973392, 73.93705565034583, 73.94949839578751, 74.56117844465255, 74.58149380878736, 73.30662243163316, 73.2380385324903, 73.45373706802505, 73.47061748278068]","dist_present",56,27,"yes","yes",1680,NA,NA,NA,NA,"NR","R","lp",NA,NA,NA,NA,NA,NA,"practice",0,"NR","in"
"3",2000.90769999952,5869.30329999817,5869.30329999817,1,1,"y",3,"['6', '6', 'space']","n","#000000","no",1425.14940000183,1,"neutral","psycho","psycho","psycho",0,"uniform",0,0,0,0,NA,0,0,NA,0,0,0,0,2,2,NA,NA,NA,NA,0,0,0,NA,2,0,2,73.2296414732588,"Thu Oct  7 15:29:32 2021","The main experiment item","yes","red","no","4","circle",NA,"pinging_target_expectations 4.0.osexp","C:\Users\etp-cp-ping\Desktop\LocalPC-EXP",75,"no","mono","no",18,"no","white","no","yes",1050,NA,100,"psycho",2,0,2,"C:/Users/etp-cp-ping/Desktop/LocalPC-EXP/subject-24.csv","psycho",0,3,3,"Lentiform Loewenfeld","3.3.8","['vert', 'hori', 'hori', 'vert', 'vert', 'hori', 'hori', 'vert']","no",209,"None","yes",0,NA,2,"legacy",NA,1024,2,48000,-16,"experiment",24,"even","green","no",0,"diamond",393859.501800001,393886.752400002,393886.792000001,NA,402851.524200003,NA,NA,77606.0724000017,1429.95100000189,NA,77606.0940000025,411848.707000001,415764.2046,NA,NA,NA,NA,1430.02820000038,403663.955,NA,NA,411848.7217,404034.921400002,411848.657000002,"New experiment",19,"[0]","dist_present",56,15,"yes","yes",1680,NA,NA,NA,NA,"NR","NR","lp",NA,NA,NA,NA,NA,NA,"practice",1,"NR","in"
"4",1004.30480000068,6873.60809999885,6873.60809999885,1,1,"y",3,"['6', '6', 'space']","n","#000000","no",1425.14940000183,1,"neutral","psycho","psycho","psycho",0,"uniform",0,0,0,0,NA,0,0,NA,0,0,0,0,3,3,NA,NA,NA,NA,0,0,0,NA,3,0,3,73.2296414732588,"Thu Oct  7 15:29:32 2021","The main experiment item","yes","green","no","None","circle",NA,"pinging_target_expectations 4.0.osexp","C:\Users\etp-cp-ping\Desktop\LocalPC-EXP",75,"no","mono","no",18,"no","white","no","yes",1050,NA,100,"psycho",3,0,3,"C:/Users/etp-cp-ping/Desktop/LocalPC-EXP/subject-24.csv","psycho",0,4,4,"Lentiform Loewenfeld","3.3.8","['hori', 'hori', 'vert', 'vert', 'hori', 'vert', 'vert', 'hori']","no",209,"None","yes",0,NA,2,"legacy",NA,1024,2,48000,-16,"experiment",24,"even","red","no",7,"diamond",393859.501800001,393886.752400002,393886.792000001,NA,402851.524200003,NA,NA,77606.0724000017,1429.95100000189,NA,77606.0940000025,415794.125200002,418692.239300002,NA,NA,NA,NA,1430.02820000038,403663.955,NA,NA,415794.140100003,404034.921400002,415794.075400001,"New experiment",19,"[0, 75.177461030374, 75.86336212648996, 73.72767601085478, 73.47115662430345, 74.03816797694955, 73.65874823404785, 73.5643959007271, 74.0057415358675, 73.61854737481767, 73.73472008025186]","dist_absent",56,89,"yes","yes",1680,NA,NA,NA,NA,"NR","NR","lp",NA,"Right",NA,NA,NA,NA,"practice",0,"NR","in"
"5",2000.21959999867,8873.82769999752,8873.82769999752,1,1,"y",3,"['6', '6', 'space']","n","#000000","no",1425.14940000183,1,"neutral","psycho","psycho","psycho",0,"uniform",0,0,0,0,NA,0,0,NA,0,0,0,0,4,4,NA,NA,NA,NA,0,0,0,NA,4,0,4,73.2296414732588,"Thu Oct  7 15:29:32 2021","The main experiment item","yes","green","no","3","diamond",NA,"pinging_target_expectations 4.0.osexp","C:\Users\etp-cp-ping\Desktop\LocalPC-EXP",75,"no","mono","no",18,"no","white","no","yes",1050,NA,100,"psycho",4,0,4,"C:/Users/etp-cp-ping/Desktop/LocalPC-EXP/subject-24.csv","psycho",0,5,5,"Lentiform Loewenfeld","3.3.8","['hori', 'hori', 'vert', 'vert', 'hori', 'vert', 'vert', 'hori']","no",209,"None","yes",0,NA,2,"legacy",NA,1024,2,48000,-16,"experiment",24,"even","red","no",7,"circle",393859.501800001,393886.752400002,393886.792000001,NA,402851.524200003,NA,NA,77606.0724000017,1429.95100000189,NA,77606.0940000025,418722.469100001,422555.493600001,NA,NA,NA,NA,1430.02820000038,403663.955,NA,NA,418722.4838,404034.921400002,418722.418200003,"New experiment",19,"[0]","dist_present",56,84,"yes","yes",1680,NA,NA,NA,NA,"R","NR","lp",NA,NA,NA,NA,NA,NA,"practice",7,"NR","in"
"6",1127.97940000019,10001.8070999977,10001.8070999977,1,1,"y",3,"['6', '6', 'space']","n","#000000","no",1425.14940000183,1,"neutral","psycho","psycho","psycho",0,"uniform",0,0,0,0,NA,0,0,NA,0,0,0,0,5,5,NA,NA,NA,NA,0,0,0,NA,5,0,5,73.2296414732588,"Thu Oct  7 15:29:32 2021","The main experiment item","yes","green","no","None","circle",NA,"pinging_target_expectations 4.0.osexp","C:\Users\etp-cp-ping\Desktop\LocalPC-EXP",75,"no","mono","no",18,"no","white","no","yes",1050,NA,100,"psycho",5,0,5,"C:/Users/etp-cp-ping/Desktop/LocalPC-EXP/subject-24.csv","psycho",0,6,6,"Lentiform Loewenfeld","3.3.8","['hori', 'vert', 'hori', 'vert', 'vert', 'hori', 'hori', 'vert']","no",209,"None","yes",0,NA,2,"legacy",NA,1024,2,48000,-16,"experiment",24,"even","red","no",1,"diamond",393859.501800001,393886.752400002,393886.792000001,NA,402851.524200003,NA,NA,77606.0724000017,1429.95100000189,NA,77606.0940000025,422585.6188,425780.352000002,NA,NA,NA,NA,1430.02820000038,403663.955,NA,NA,422585.633300001,404034.921400002,422585.569500003,"New experiment",19,"[0]","dist_absent",56,29,"yes","yes",1680,NA,NA,NA,NA,"NR","NR","lp",NA,"Left",NA,NA,NA,NA,"practice",7,"R","in"
"7",1926.28960000002,11928.0966999977,11928.0966999977,2,2,"y",3,"['6', '6', 'space']","n","#000000","no",1425.14940000183,1,"neutral","psycho","psycho","psycho",0,"uniform",1,0,0,0,NA,0,0,NA,0,0,0,0,6,6,NA,NA,NA,NA,0,0,0,NA,6,0,6,73.2296414732588,"Thu Oct  7 15:29:32 2021","The main experiment item","yes","green","no","7","circle",NA,"pinging_target_expectations 4.0.osexp","C:\Users\etp-cp-ping\Desktop\LocalPC-EXP",75,"no","mono","no",18,"no","white","no","yes",1050,NA,100,"psycho",6,0,6,"C:/Users/etp-cp-ping/Desktop/LocalPC-EXP/subject-24.csv","psycho",0,7,7,"Lentiform Loewenfeld","3.3.8","['hori', 'vert', 'hori', 'vert', 'hori', 'vert', 'hori', 'vert']","yes",109,"circles","yes",0,NA,2,"legacy",NA,1024,2,48000,-16,"experiment",24,"even","red","no",5,"diamond",393859.501800001,393886.752400002,393886.792000001,NA,402851.524200003,NA,NA,77606.0724000017,1429.95100000189,NA,77606.0940000025,425810.3907,429492.391900003,NA,NA,NA,NA,1430.02820000038,403663.955,NA,NA,425810.405600001,404034.921400002,425810.3409,"New experiment",19,"[0]","dist_present",56,68,"yes","yes",1680,NA,NA,NA,NA,"NR","NR","lp",NA,NA,NA,NA,NA,NA,"practice",1,"NR","in"
"8",1045.29510000063,12973.3917999984,12973.3917999984,2,2,"y",3,"['6', '6', 'space']","n","#000000","no",1425.14940000183,1,"neutral","psycho","psycho","psycho",0,"uniform",0,0,0,0,NA,0,0,NA,0,0,0,0,7,7,NA,NA,NA,NA,0,0,0,NA,7,0,7,73.2296414732588,"Thu Oct  7 15:29:32 2021","The main experiment item","yes","green","no","None","circle",NA,"pinging_target_expectations 4.0.osexp","C:\Users\etp-cp-ping\Desktop\LocalPC-EXP",75,"no","mono","no",18,"no","white","no","yes",1050,NA,100,"psycho",7,0,7,"C:/Users/etp-cp-ping/Desktop/LocalPC-EXP/subject-24.csv","psycho",0,8,8,"Lentiform Loewenfeld","3.3.8","['hori', 'vert', 'vert', 'vert', 'hori', 'hori', 'hori', 'vert']","yes",109,"diamond","yes",0,NA,2,"legacy",NA,1024,2,48000,-16,"experiment",24,"even","red","no",6,"diamond",393859.501800001,393886.752400002,393886.792000001,NA,402851.524200003,NA,NA,77606.0724000017,1429.95100000189,NA,77606.0940000025,429524.263900003,432196.263600003,NA,NA,NA,NA,1430.02820000038,403663.955,NA,NA,429524.2789,404034.921400002,429524.214600002,"New experiment",19,"[0]","dist_absent",56,79,"yes","yes",1680,NA,NA,NA,NA,"NR","NR","lp",NA,"Right",NA,"Right",NA,NA,"practice",5,"NR","in"
"9",2000.60950000264,14974.001300001,14974.001300001,2,2,"y",3,"['6', '6', 'space']","n","#000000","no",1425.14940000183,1,"neutral","psycho","psycho","psycho",0,"uniform",0,0,0,0,NA,0,0,NA,0,0,0,0,8,8,NA,NA,NA,NA,0,0,0,NA,8,0,8,73.2296414732588,"Thu Oct  7 15:29:32 2021","The main experiment item","yes","red","no","4","circle",NA,"pinging_target_expectations 4.0.osexp","C:\Users\etp-cp-ping\Desktop\LocalPC-EXP",75,"no","mono","no",18,"no","white","no","yes",1050,NA,100,"psycho",8,0,8,"C:/Users/etp-cp-ping/Desktop/LocalPC-EXP/subject-24.csv","psycho",0,9,9,"Lentiform Loewenfeld","3.3.8","['hori', 'hori', 'vert', 'hori', 'hori', 'vert', 'vert', 'vert']","no",209,"None","yes",0,NA,2,"legacy",NA,1024,2,48000,-16,"experiment",24,"even","green","no",6,"diamond",393859.501800001,393886.752400002,393886.792000001,NA,402851.524200003,NA,NA,77606.0724000017,1429.95100000189,NA,77606.0940000025,432226.607100001,435997.664500002,NA,NA,NA,NA,1430.02820000038,403663.955,NA,NA,432226.6217,404034.921400002,432226.558000002,"New experiment",19,"[0, 73.33520643212339, 74.14919199384838, 73.85912300637048, 73.85998576739193, 73.88050220428478, 73.90162668876971, 73.83238893937249, 73.37281481321209, 73.99514955862595, 75.09579042301979, 76.73388758817502, 76.70749958878996, 73.88653386426543, 73.29346574956276, 73.9086015085756, 76.39175883478426, 76.52483775518753, 76.4712547001218, 76.39175883478426, 77.35697022431722, 76.03420941245662, 75.54634993677905, 74.76609057294075, 74.96112380286026, 75.09628028242174, 76.40240671251883, 73.24616030891995, 77.38165111445899, 74.34095649438672, 73.46462314946517, 73.9493128210125, 73.74727710313779, 73.58316457842308, 73.74172335045786, 74.84651849329127, 74.29059000099178, 73.87827215548853, 73.401697456215, 73.87969336561618, 73.85458685823109, 73.24868622002457, 73.32461790602552, 73.51803400841916, 73.77939727925956, 74.55877446424378, 73.39243223171898, 73.80000267959319, 73.62853218660359, 73.33520643212339, 73.44183090620912, 75.39564029626871, 74.82787514314126, 73.61554684013733, 73.7563556583431, 73.5611191260061, 73.83142059443584, 73.24808637912271, 74.39199070632962, 74.4677747834683, 74.0229618223553, 75.40028160306206, 76.28746793328622, 73.35626592519844, 73.3774555893721, 73.55169985303043, 73.64916189511125, 74.80281197061734, 74.72109332116015, 73.23086177432964, 73.25639903789975, 73.4588399014588, 73.47414926592718]","dist_present",56,75,"yes","yes",1680,NA,NA,NA,NA,"R","NR","lp",NA,"Right",NA,"Right",NA,NA,"practice",6,"NR","in"
"10",895.365500000422,15869.3668000014,15869.3668000014,3,3,"y",3,"['6', '6', 'space']","n","#000000","no",1425.14940000183,1,"neutral","psycho","psycho","psycho",0,"uniform",1,0,0,0,NA,0,0,NA,0,0,0,0,9,9,NA,NA,NA,NA,0,0,0,NA,9,0,9,73.2296414732588,"Thu Oct  7 15:29:32 2021","The main experiment item","yes","red","no","1","diamond",NA,"pinging_target_expectations 4.0.osexp","C:\Users\etp-cp-ping\Desktop\LocalPC-EXP",75,"no","mono","no",18,"no","white","no","yes",1050,NA,100,"psycho",9,0,9,"C:/Users/etp-cp-ping/Desktop/LocalPC-EXP/subject-24.csv","psycho",0,10,10,"Lentiform Loewenfeld","3.3.8","['vert', 'hori', 'hori', 'vert', 'hori', 'vert', 'hori', 'vert']","no",209,"None","yes",0,NA,2,"legacy",NA,1024,2,48000,-16,"experiment",24,"even","green","no",2,"circle",393859.501800001,393886.752400002,393886.792000001,NA,402851.524200003,NA,NA,77606.0724000017,1429.95100000189,NA,77606.0940000025,436027.817300001,438868.434200002,NA,NA,NA,NA,1430.02820000038,403663.955,NA,NA,436027.832300002,404034.921400002,436027.767800002,"New experiment",19,"[0]","dist_present",56,32,"yes","yes",1680,NA,NA,NA,NA,"NR","NR","lp",NA,NA,NA,NA,NA,NA,"practice",6,"R","in"
"11",1207.78740000242,17077.1542000038,17077.1542000038,4,4,"y",3,"['6', '6', 'space']","n","#000000","no",1425.14940000183,1,"neutral","psycho","psycho","psycho",0,"uniform",1,0,0,0,NA,0,0,NA,0,0,0,0,10,10,NA,NA,NA,NA,0,0,0,NA,10,0,10,73.2296414732588,"Thu Oct  7 15:29:32 2021","The main experiment item","yes","green","no","None","diamond",NA,"pinging_target_expectations 4.0.osexp","C:\Users\etp-cp-ping\Desktop\LocalPC-EXP",75,"no","mono","no",18,"no","white","no","yes",1050,NA,100,"psycho",10,0,10,"C:/Users/etp-cp-ping/Desktop/LocalPC-EXP/subject-24.csv","psycho",0,11,11,"Lentiform Loewenfeld","3.3.8","['hori', 'hori', 'vert', 'vert', 'hori', 'vert', 'vert', 'hori']","yes",109,"diamond","yes",0,NA,2,"legacy",NA,1024,2,48000,-16,"experiment",24,"even","red","no",1,"circle",393859.501800001,393886.752400002,393886.792000001,NA,402851.524200003,NA,NA,77606.0724000017,1429.95100000189,NA,77606.0940000025,438898.863000002,442132.277300003,NA,NA,NA,NA,1430.02820000038,403663.955,NA,NA,438898.8775,404034.921400002,438898.8135,"New experiment",19,"[0]","dist_absent",56,29,"yes","yes",1680,NA,NA,NA,NA,"NR","NR","lp",NA,"Left",NA,NA,NA,NA,"practice",2,"NR","in"
"12",1334.51020000211,18411.6644000059,18411.6644000059,5,5,"y",3,"['6', '6', 'space']","n","#000000","no",1425.14940000183,1,"neutral","psycho","psycho","psycho",0,"uniform",1,0,0,0,NA,0,0,NA,0,0,0,0,11,11,NA,NA,NA,NA,0,0,0,NA,11,0,11,73.2296414732588,"Thu Oct  7 15:29:32 2021","The main experiment item","yes","green","no","None","circle",NA,"pinging_target_expectations 4.0.osexp","C:\Users\etp-cp-ping\Desktop\LocalPC-EXP",75,"no","mono","no",18,"no","white","no","yes",1050,NA,100,"psycho",11,0,11,"C:/Users/etp-cp-ping/Desktop/LocalPC-EXP/subject-24.csv","psycho",0,12,12,"Lentiform Loewenfeld","3.3.8","['vert', 'hori', 'vert', 'vert', 'hori', 'hori', 'hori', 'vert']","yes",109,"diamond","yes",0,NA,2,"legacy",NA,1024,2,48000,-16,"experiment",24,"even","red","no",3,"diamond",393859.501800001,393886.752400002,393886.792000001,NA,402851.524200003,NA,NA,77606.0724000017,1429.95100000189,NA,77606.0940000025,442163.833300001,445668.3782,NA,NA,NA,NA,1430.02820000038,403663.955,NA,NA,442163.847900003,404034.921400002,442163.783400003,"New experiment",19,"[0]","dist_absent",56,49,"yes","yes",1680,NA,NA,NA,NA,"NR","R","lp",NA,"Left",NA,NA,NA,NA,"practice",1,"NR","in"
"13",1441.54329999944,19853.2077000054,19853.2077000054,6,6,"y",3,"['6', '6', 'space']","n","#000000","no",1425.14940000183,1,"neutral","psycho","psycho","psycho",0,"uniform",1,0,0,0,NA,0,0,NA,0,0,0,0,12,12,NA,NA,NA,NA,0,0,0,NA,12,0,12,73.2296414732588,"Thu Oct  7 15:29:32 2021","The main experiment item","yes","green","no","3","diamond",NA,"pinging_target_expectations 4.0.osexp","C:\Users\etp-cp-ping\Desktop\LocalPC-EXP",75,"no","mono","no",18,"no","white","no","yes",1050,NA,100,"psycho",12,0,12,"C:/Users/etp-cp-ping/Desktop/LocalPC-EXP/subject-24.csv","psycho",0,13,13,"Lentiform Loewenfeld","3.3.8","['hori', 'vert', 'hori', 'vert', 'vert', 'vert', 'hori', 'hori']","yes",109,"circles","yes",0,NA,2,"legacy",NA,1024,2,48000,-16,"experiment",24,"even","red","no",2,"circle",393859.501800001,393886.752400002,393886.792000001,NA,402851.524200003,NA,NA,77606.0724000017,1429.95100000189,NA,77606.0940000025,445699.005900002,448772.3148,NA,NA,NA,NA,1430.02820000038,403663.955,NA,NA,445699.020800003,404034.921400002,445698.956700002,"New experiment",19,"[0]","dist_present",56,34,"yes","yes",1680,NA,NA,NA,NA,"NR","NR","lp",NA,NA,NA,NA,NA,NA,"practice",3,"NR","in"
"14",1045.85220000084,20899.0599000062,20899.0599000062,7,7,"y",3,"['6', '6', 'space']","n","#000000","no",1425.14940000183,1,"neutral","psycho","psycho","psycho",0,"uniform",1,0,0,0,NA,0,0,NA,0,0,0,0,13,13,NA,NA,NA,NA,0,0,0,NA,13,0,13,73.2296414732588,"Thu Oct  7 15:29:32 2021","The main experiment item","yes","green","no","2","diamond",NA,"pinging_target_expectations 4.0.osexp","C:\Users\etp-cp-ping\Desktop\LocalPC-EXP",75,"no","mono","no",18,"no","white","no","yes",1050,NA,100,"psycho",13,0,13,"C:/Users/etp-cp-ping/Desktop/LocalPC-EXP/subject-24.csv","psycho",0,14,14,"Lentiform Loewenfeld","3.3.8","['hori', 'vert', 'vert', 'hori', 'hori', 'vert', 'hori', 'vert']","yes",109,"diamond","yes",0,NA,2,"legacy",NA,1024,2,48000,-16,"experiment",24,"even","red","no",5,"circle",393859.501800001,393886.752400002,393886.792000001,NA,402851.524200003,NA,NA,77606.0724000017,1429.95100000189,NA,77606.0940000025,448802.3794,451716.2819,NA,NA,NA,NA,1430.02820000038,403663.955,NA,NA,448802.394400002,404034.921400002,448802.329900002,"New experiment",19,"[0]","dist_present",56,63,"yes","yes",1680,NA,NA,NA,NA,"NR","NR","lp",NA,NA,NA,NA,NA,NA,"practice",2,"NR","in"
"15",1029.72980000044,21928.7897000067,21928.7897000067,8,8,"y",3,"['6', '6', 'space']","n","#000000","no",1425.14940000183,1,"neutral","psycho","psycho","psycho",0,"uniform",1,0,0,0,NA,0,0,NA,0,0,0,0,14,14,NA,NA,NA,NA,0,0,0,NA,14,0,14,73.2296414732588,"Thu Oct  7 15:29:32 2021","The main experiment item","yes","green","no","7","diamond",NA,"pinging_target_expectations 4.0.osexp","C:\Users\etp-cp-ping\Desktop\LocalPC-EXP",75,"no","mono","no",18,"no","white","no","yes",1050,NA,100,"psycho",14,0,14,"C:/Users/etp-cp-ping/Desktop/LocalPC-EXP/subject-24.csv","psycho",0,15,15,"Lentiform Loewenfeld","3.3.8","['hori', 'vert', 'hori', 'hori', 'hori', 'vert', 'vert', 'vert']","yes",109,"circles","yes",0,NA,2,"legacy",NA,1024,2,48000,-16,"experiment",24,"even","red","no",6,"circle",393859.501800001,393886.752400002,393886.792000001,NA,402851.524200003,NA,NA,77606.0724000017,1429.95100000189,NA,77606.0940000025,451747.937200002,454436.410600003,NA,NA,NA,NA,1430.02820000038,403663.955,NA,NA,451747.952400001,404034.921400002,451747.889000002,"New experiment",19,"[0]","dist_present",56,78,"yes","yes",1680,NA,NA,NA,NA,"NR","NR","lp",NA,NA,NA,NA,NA,NA,"practice",5,"NR","in"
"16",1271.65309999691,23200.4428000036,23200.4428000036,9,9,"y",3,"['6', '6', 'space']","n","#000000","no",1425.14940000183,1,"neutral","psycho","psycho","psycho",0,"uniform",1,0,0,0,NA,0,0,NA,0,0,0,0,15,15,NA,NA,NA,NA,0,0,0,NA,15,0,15,73.2296414732588,"Thu Oct  7 15:29:32 2021","The main experiment item","yes","red","no","2","circle",NA,"pinging_target_expectations 4.0.osexp","C:\Users\etp-cp-ping\Desktop\LocalPC-EXP",75,"no","mono","no",18,"no","white","no","yes",1050,NA,100,"psycho",15,0,15,"C:/Users/etp-cp-ping/Desktop/LocalPC-EXP/subject-24.csv","psycho",0,16,16,"Lentiform Loewenfeld","3.3.8","['vert', 'hori', 'vert', 'vert', 'hori', 'hori', 'hori', 'vert']","yes",109,"diamond","yes",0,NA,2,"legacy",NA,1024,2,48000,-16,"experiment",24,"even","green","no",1,"diamond",393859.501800001,393886.752400002,393886.792000001,NA,402851.524200003,NA,NA,77606.0724000017,1429.95100000189,NA,77606.0940000025,454466.675900003,457508.3184,NA,NA,NA,NA,1430.02820000038,403663.955,NA,NA,454466.690400001,404034.921400002,454466.626200003,"New experiment",19,"[0]","dist_present",56,23,"yes","yes",1680,NA,NA,NA,NA,"NR","NR","lp",NA,NA,NA,NA,NA,NA,"practice",6,"NR","in"
"17",1525.70170000038,24726.144500004,24726.144500004,10,10,"y",3,"['6', '6', 'space']","n","#000000","no",1425.14940000183,1,"neutral","psycho","psycho","psycho",0,"uniform",1,0,0,0,NA,0,0,NA,0,0,0,0,16,16,NA,NA,NA,NA,0,0,0,NA,16,0,16,73.2296414732588,"Thu Oct  7 15:29:32 2021","The main experiment item","yes","red","no","7","diamond",NA,"pinging_target_expectations 4.0.osexp","C:\Users\etp-cp-ping\Desktop\LocalPC-EXP",75,"no","mono","no",18,"no","white","no","yes",1050,NA,100,"psycho",16,0,16,"C:/Users/etp-cp-ping/Desktop/LocalPC-EXP/subject-24.csv","psycho",0,17,17,"Lentiform Loewenfeld","3.3.8","['vert', 'vert', 'hori', 'hori', 'hori', 'vert', 'vert', 'hori']","no",209,"None","yes",0,NA,2,"legacy",NA,1024,2,48000,-16,"experiment",24,"even","green","no",2,"circle",393859.501800001,393886.752400002,393886.792000001,NA,402851.524200003,NA,NA,77606.0724000017,1429.95100000189,NA,77606.0940000025,457538.583600002,461108.342300002,NA,NA,NA,NA,1430.02820000038,403663.955,NA,NA,457538.5981,404034.921400002,457538.5336,"New experiment",19,"[0]","dist_present",56,38,"yes","yes",1680,NA,NA,NA,NA,"NR","NR","lp",NA,NA,NA,NA,NA,NA,"practice",1,"NR","in"
"18",1420.57129999739,26146.7158000013,26146.7158000013,11,11,"y",3,"['6', '6', 'space']","n","#000000","no",1425.14940000183,1,"neutral","psycho","psycho","psycho",0,"uniform",1,0,0,0,NA,0,0,NA,0,0,0,0,17,17,NA,NA,NA,NA,0,0,0,NA,17,0,17,73.2296414732588,"Thu Oct  7 15:29:32 2021","The main experiment item","yes","red","no","6","diamond",NA,"pinging_target_expectations 4.0.osexp","C:\Users\etp-cp-ping\Desktop\LocalPC-EXP",75,"no","mono","no",18,"no","white","no","yes",1050,NA,100,"psycho",17,0,17,"C:/Users/etp-cp-ping/Desktop/LocalPC-EXP/subject-24.csv","psycho",0,18,18,"Lentiform Loewenfeld","3.3.8","['hori', 'vert', 'vert', 'hori', 'vert', 'vert', 'hori', 'hori']","yes",109,"circles","yes",0,NA,2,"legacy",NA,1024,2,48000,-16,"experiment",24,"even","green","no",2,"circle",393859.501800001,393886.752400002,393886.792000001,NA,402851.524200003,NA,NA,77606.0724000017,1429.95100000189,NA,77606.0940000025,461138.623700001,464388.332400002,NA,NA,NA,NA,1430.02820000038,403663.955,NA,NA,461138.638500001,404034.921400002,461138.573800003,"New experiment",19,"[0]","dist_present",56,37,"yes","yes",1680,NA,NA,NA,NA,"R","NR","lp",NA,NA,NA,NA,NA,NA,"practice",2,"NR","in"
"19",1337.88899999857,27484.6047999999,27484.6047999999,11,11,"y",3,"['6', '6', 'space']","n","#000000","no",1425.14940000183,1,"neutral","psycho","psycho","psycho",0,"uniform",0,0,0,0,NA,0,0,NA,0,0,0,0,18,18,NA,NA,NA,NA,0,0,0,NA,18,0,18,73.2296414732588,"Thu Oct  7 15:29:32 2021","The main experiment item","yes","red","no","4","diamond",NA,"pinging_target_expectations 4.0.osexp","C:\Users\etp-cp-ping\Desktop\LocalPC-EXP",75,"no","mono","no",18,"no","white","no","yes",1050,NA,100,"psycho",18,0,18,"C:/Users/etp-cp-ping/Desktop/LocalPC-EXP/subject-24.csv","psycho",0,19,19,"Lentiform Loewenfeld","3.3.8","['vert', 'vert', 'hori', 'vert', 'vert', 'hori', 'hori', 'hori']","no",209,"None","yes",0,NA,2,"legacy",NA,1024,2,48000,-16,"experiment",24,"even","green","no",1,"circle",393859.501800001,393886.752400002,393886.792000001,NA,402851.524200003,NA,NA,77606.0724000017,1429.95100000189,NA,77606.0940000025,464418.634100002,467668.4412,NA,NA,NA,NA,1430.02820000038,403663.955,NA,NA,464418.648900002,404034.921400002,464418.584000003,"New experiment",19,"[0]","dist_present",56,25,"yes","yes",1680,NA,NA,NA,NA,"NR","NR","lp",NA,"Left",NA,NA,NA,NA,"practice",2,"R","in"
"20",1566.03709999763,29050.6418999975,29050.6418999975,12,12,"y",3,"['6', '6', 'space']","n","#000000","no",1425.14940000183,1,"neutral","psycho","psycho","psycho",0,"uniform",1,0,0,0,NA,0,0,NA,0,0,0,0,19,19,NA,NA,NA,NA,0,0,0,NA,19,0,19,73.2296414732588,"Thu Oct  7 15:29:32 2021","The main experiment item","yes","green","no","0","diamond",NA,"pinging_target_expectations 4.0.osexp","C:\Users\etp-cp-ping\Desktop\LocalPC-EXP",75,"no","mono","no",18,"no","white","no","yes",1050,NA,100,"psycho",19,0,19,"C:/Users/etp-cp-ping/Desktop/LocalPC-EXP/subject-24.csv","psycho",0,20,20,"Lentiform Loewenfeld","3.3.8","['vert', 'vert', 'hori', 'vert', 'vert', 'hori', 'hori', 'hori']","no",209,"None","yes",0,NA,2,"legacy",NA,1024,2,48000,-16,"experiment",24,"even","red","no",4,"circle",393859.501800001,393886.752400002,393886.792000001,NA,402851.524200003,NA,NA,77606.0724000017,1429.95100000189,NA,77606.0940000025,467700.493100001,471236.306000003,NA,NA,NA,NA,1430.02820000038,403663.955,NA,NA,467700.5078,404034.921400002,467700.442700003,"New experiment",19,"[0]","dist_present",56,51,"yes","yes",1680,NA,NA,NA,NA,"NR","NR","lp",NA,NA,NA,NA,NA,NA,"practice",1,"NR","in"
"21",1490.77220000251,30541.4141000001,30541.4141000001,12,12,"y",3,"['6', '6', 'space']","n","#000000","no",471790.076900001,1,"neutral","psycho","psycho","psycho",0,"uniform",0,0,0,0,NA,0,0,NA,0,0,0,0,20,20,NA,NA,NA,NA,0,0,0,NA,20,0,20,73.2296414732588,"Thu Oct  7 15:29:32 2021","The main experiment item","yes","red","no","None","diamond",NA,"pinging_target_expectations 4.0.osexp","C:\Users\etp-cp-ping\Desktop\LocalPC-EXP",75,"no","mono","no",18,"no","white","no","yes",1050,NA,100,"psycho",20,0,20,"C:/Users/etp-cp-ping/Desktop/LocalPC-EXP/subject-24.csv","psycho",1,21,21,"Lentiform Loewenfeld","3.3.8","['vert', 'hori', 'vert', 'vert', 'hori', 'hori', 'hori', 'vert']","yes",109,"circles","yes",0,NA,2,"legacy",NA,1024,2,48000,-16,"experiment",24,"even","green","no",4,"circle",393859.501800001,393886.752400002,393886.792000001,NA,402851.524200003,NA,NA,77606.0724000017,1429.95100000189,NA,77606.0940000025,471266.634600001,474884.367300001,NA,NA,NA,NA,1430.02820000038,403663.955,NA,NA,471266.649000001,404034.921400002,471266.585100002,"New experiment",19,"[0]","dist_absent",56,59,"yes","no",1680,NA,NA,NA,NA,"R","NR","lp",NA,NA,NA,NA,NA,NA,"practice",4,"NR","in"
"22",1366.82509999815,31908.2391999982,31908.2391999982,13,13,"y",3,"['6', '6', 'space']","n","#000000","no",471790.076900001,1,"neutral","psycho","psycho","psycho",0,"uniform",1,0,0,0,NA,0,0,NA,0,0,0,0,21,21,NA,NA,NA,NA,0,0,0,NA,21,0,21,73.2296414732588,"Thu Oct  7 15:29:32 2021","The main experiment item","yes","red","no","0","circle",NA,"pinging_target_expectations 4.0.osexp","C:\Users\etp-cp-ping\Desktop\LocalPC-EXP",75,"no","mono","no",18,"no","white","no","yes",1050,NA,100,"psycho",21,0,21,"C:/Users/etp-cp-ping/Desktop/LocalPC-EXP/subject-24.csv","psycho",1,22,22,"Lentiform Loewenfeld","3.3.8","['vert', 'hori', 'hori', 'vert', 'hori', 'vert', 'vert', 'hori']","no",209,"None","yes",0,NA,2,"legacy",NA,1024,2,48000,-16,"experiment",24,"even","green","no",6,"diamond",393859.501800001,393886.752400002,393886.792000001,NA,402851.524200003,NA,NA,77606.0724000017,1429.95100000189,NA,77606.0940000025,474915.079300001,477828.458800002,NA,NA,NA,NA,1430.02820000038,403663.955,NA,NA,474915.094400003,404034.921400002,474915.03,"New experiment",19,"[0]","dist_present",56,71,"yes","yes",1680,NA,NA,NA,NA,"NR","NR","lp",NA,"Right",NA,"Right",NA,NA,"practice",4,"R","in"
"23",993.747099997534,32901.9862999957,32901.9862999957,13,13,"y",3,"['6', '6', 'space']","n","#000000","no",471790.076900001,1,"neutral","psycho","psycho","psycho",0,"uniform",0,0,0,0,NA,0,0,NA,0,0,0,0,22,22,NA,NA,NA,NA,0,0,0,NA,22,0,22,73.2296414732588,"Thu Oct  7 15:29:32 2021","The main experiment item","yes","red","no","None","diamond",NA,"pinging_target_expectations 4.0.osexp","C:\Users\etp-cp-ping\Desktop\LocalPC-EXP",75,"no","mono","no",18,"no","white","no","yes",1050,NA,100,"psycho",22,0,22,"C:/Users/etp-cp-ping/Desktop/LocalPC-EXP/subject-24.csv","psycho",1,23,23,"Lentiform Loewenfeld","3.3.8","['vert', 'vert', 'vert', 'hori', 'vert', 'hori', 'hori', 'hori']","no",209,"None","yes",0,NA,2,"legacy",NA,1024,2,48000,-16,"experiment",24,"even","green","no",3,"circle",393859.501800001,393886.752400002,393886.792000001,NA,402851.524200003,NA,NA,77606.0724000017,1429.95100000189,NA,77606.0940000025,477860.059900002,480708.586200002,NA,NA,NA,NA,1430.02820000038,403663.955,NA,NA,477860.074700002,404034.921400002,477860.010200002,"New experiment",19,"[0]","dist_absent",56,49,"yes","yes",1680,NA,NA,NA,NA,"NR","NR","lp",NA,"Left",NA,NA,NA,NA,"practice",6,"NR","in"
"24",2000.44200000045,34902.4282999962,34902.4282999962,13,13,"y",3,"['6', '6', 'space']","n","#000000","no",471790.076900001,1,"neutral","psycho","psycho","psycho",0,"uniform",0,0,0,0,NA,0,0,NA,0,0,0,0,23,23,NA,NA,NA,NA,0,0,0,NA,23,0,23,73.2296414732588,"Thu Oct  7 15:29:32 2021","The main experiment item","yes","green","no","None","circle",NA,"pinging_target_expectations 4.0.osexp","C:\Users\etp-cp-ping\Desktop\LocalPC-EXP",75,"no","mono","no",18,"no","white","no","yes",1050,NA,100,"psycho",23,0,23,"C:/Users/etp-cp-ping/Desktop/LocalPC-EXP/subject-24.csv","psycho",1,24,24,"Lentiform Loewenfeld","3.3.8","['vert', 'hori', 'vert', 'hori', 'vert', 'vert', 'hori', 'hori']","yes",109,"diamond","yes",0,NA,2,"legacy",NA,1024,2,48000,-16,"experiment",24,"even","red","no",3,"diamond",393859.501800001,393886.752400002,393886.792000001,NA,402851.524200003,NA,NA,77606.0724000017,1429.95100000189,NA,77606.0940000025,480738.7987,484574.363700001,NA,NA,NA,NA,1430.02820000038,403663.955,NA,NA,480738.8135,404034.921400002,480738.745900002,"New experiment",19,"[0]","dist_absent",56,49,"yes","yes",1680,NA,NA,NA,NA,"R","R","lp",NA,"Left",NA,NA,NA,NA,"practice",3,"NR","in"
"25",2000.69860000082,36903.126899997,36903.126899997,13,13,"y",3,"['6', '6', 'space']","n","#000000","no",485751.883100002,1,"neutral","psycho","psycho","psycho",0,"uniform",0,0,0,0,NA,0,0,NA,0,0,0,0,24,24,NA,NA,NA,NA,0,0,0,NA,24,0,24,73.2296414732588,"Thu Oct  7 15:29:32 2021","The main experiment item","yes","green","no","0","diamond",NA,"pinging_target_expectations 4.0.osexp","C:\Users\etp-cp-ping\Desktop\LocalPC-EXP",75,"no","mono","no",18,"no","white","no","yes",1050,NA,100,"psycho",24,0,24,"C:/Users/etp-cp-ping/Desktop/LocalPC-EXP/subject-24.csv","psycho",2,25,25,"Lentiform Loewenfeld","3.3.8","['vert', 'vert', 'hori', 'vert', 'hori', 'hori', 'hori', 'vert']","no",209,"None","yes",0,NA,2,"legacy",NA,1024,2,48000,-16,"experiment",24,"even","red","no",6,"circle",393859.501800001,393886.752400002,393886.792000001,NA,402851.524200003,NA,NA,77606.0724000017,1429.95100000189,NA,77606.0940000025,484604.479600002,488640.160700001,NA,NA,NA,NA,1430.02820000038,403663.955,NA,NA,484604.494200001,404034.921400002,484604.430800002,"New experiment",19,"[0, 82.85898008698443, 100.27342799230871, 127.65725919506694, 142.69723192830335, 169.62328402636078, 195.5309060786395, 213.19430000744546, 242.91007684353, 266.0033586195394, 276.51525647860734, 309.19339342252124, 330.20939399392705, 360.94146219078, 391.904439328556, 415.7812163249244, 450.23557004656635, 477.0712496536492, 529.5318131175104, 561.2308239999095, 584.9185822416359, 610.2204480431332, 638.189314974835, 663.1221715412998, 679.1330360210989, 712.1589749662645, 729.9909980733112]","dist_present",56,71,"yes","no",1680,NA,NA,NA,NA,"NR","NR","lp",NA,"Right",NA,"Right",NA,NA,"practice",3,"R","in"
"26",1016.89590000024,37920.0227999972,37920.0227999972,14,14,"y",3,"['6', '6', 'space']","n","#000000","no",485751.883100002,1,"neutral","psycho","psycho","psycho",0,"uniform",1,0,0,0,NA,0,0,NA,0,0,0,0,25,25,NA,NA,NA,NA,0,0,0,NA,25,0,25,73.2296414732588,"Thu Oct  7 15:29:32 2021","The main experiment item","yes","red","no","None","circle",NA,"pinging_target_expectations 4.0.osexp","C:\Users\etp-cp-ping\Desktop\LocalPC-EXP",75,"no","mono","no",18,"no","white","no","yes",1050,NA,100,"psycho",25,0,25,"C:/Users/etp-cp-ping/Desktop/LocalPC-EXP/subject-24.csv","psycho",2,26,26,"Lentiform Loewenfeld","3.3.8","['vert', 'vert', 'hori', 'hori', 'hori', 'hori', 'vert', 'vert']","yes",109,"diamond","yes",0,NA,2,"legacy",NA,1024,2,48000,-16,"experiment",24,"even","green","no",7,"diamond",393859.501800001,393886.752400002,393886.792000001,NA,402851.524200003,NA,NA,77606.0724000017,1429.95100000189,NA,77606.0940000025,488671.729200003,491716.354700002,NA,NA,NA,NA,1430.02820000038,403663.955,NA,NA,488671.7446,404034.921400002,488671.6786,"New experiment",19,"[0]","dist_absent",56,89,"yes","yes",1680,NA,NA,NA,NA,"NR","NR","lp",NA,"Right",NA,NA,NA,NA,"practice",6,"NR","in"
"27",792.758200001088,38712.7809999983,38712.7809999983,15,15,"y",3,"['6', '6', 'space']","n","#000000","no",485751.883100002,1,"neutral","psycho","psycho","psycho",0,"uniform",1,0,0,0,NA,0,0,NA,0,0,0,0,26,26,NA,NA,NA,NA,0,0,0,NA,26,0,26,73.2296414732588,"Thu Oct  7 15:29:32 2021","The main experiment item","yes","green","no","1","diamond",NA,"pinging_target_expectations 4.0.osexp","C:\Users\etp-cp-ping\Desktop\LocalPC-EXP",75,"no","mono","no",18,"no","white","no","yes",1050,NA,100,"psycho",26,0,26,"C:/Users/etp-cp-ping/Desktop/LocalPC-EXP/subject-24.csv","psycho",2,27,27,"Lentiform Loewenfeld","3.3.8","['vert', 'hori', 'vert', 'hori', 'hori', 'vert', 'vert', 'hori']","yes",109,"circles","yes",0,NA,2,"legacy",NA,1024,2,48000,-16,"experiment",24,"even","red","no",5,"circle",393859.501800001,393886.752400002,393886.792000001,NA,402851.524200003,NA,NA,77606.0724000017,1429.95100000189,NA,77606.0940000025,491746.5199,494260.350300003,NA,NA,NA,NA,1430.02820000038,403663.955,NA,NA,491746.534500002,404034.921400002,491746.4707,"New experiment",19,"[0]","dist_present",56,62,"yes","yes",1680,NA,NA,NA,NA,"NR","NR","lp",NA,NA,NA,NA,NA,NA,"practice",7,"NR","in"
"28",952.904300000169,39665.6852999985,39665.6852999985,16,16,"y",3,"['6', '6', 'space']","n","#000000","no",485751.883100002,1,"neutral","psycho","psycho","psycho",0,"uniform",1,0,0,0,NA,0,0,NA,0,0,0,0,27,27,NA,NA,NA,NA,0,0,0,NA,27,0,27,73.2296414732588,"Thu Oct  7 15:29:32 2021","The main experiment item","yes","red","no","None","circle",NA,"pinging_target_expectations 4.0.osexp","C:\Users\etp-cp-ping\Desktop\LocalPC-EXP",75,"no","mono","no",18,"no","white","no","yes",1050,NA,100,"psycho",27,0,27,"C:/Users/etp-cp-ping/Desktop/LocalPC-EXP/subject-24.csv","psycho",2,28,28,"Lentiform Loewenfeld","3.3.8","['vert', 'vert', 'hori', 'vert', 'hori', 'hori', 'vert', 'hori']","no",209,"None","yes",0,NA,2,"legacy",NA,1024,2,48000,-16,"experiment",24,"even","green","no",3,"diamond",393859.501800001,393886.752400002,393886.792000001,NA,402851.524200003,NA,NA,77606.0724000017,1429.95100000189,NA,77606.0940000025,494290.693000003,496996.378100001,NA,NA,NA,NA,1430.02820000038,403663.955,NA,NA,494290.708100001,404034.921400002,494290.644000001,"New experiment",19,"[0]","dist_absent",56,49,"yes","yes",1680,NA,NA,NA,NA,"NR","NR","lp",NA,"Left",NA,NA,NA,NA,"practice",5,"NR","in"
"29",664.902500000608,40330.5877999991,40330.5877999991,17,17,"y",3,"['6', '6', 'space']","n","#000000","no",485751.883100002,1,"neutral","psycho","psycho","psycho",0,"uniform",1,0,0,0,NA,0,0,NA,0,0,0,0,28,28,NA,NA,NA,NA,0,0,0,NA,28,0,28,73.2296414732588,"Thu Oct  7 15:29:32 2021","The main experiment item","yes","red","no","5","diamond",NA,"pinging_target_expectations 4.0.osexp","C:\Users\etp-cp-ping\Desktop\LocalPC-EXP",75,"no","mono","no",18,"no","white","no","yes",1050,NA,100,"psycho",28,0,28,"C:/Users/etp-cp-ping/Desktop/LocalPC-EXP/subject-24.csv","psycho",2,29,29,"Lentiform Loewenfeld","3.3.8","['hori', 'vert', 'vert', 'vert', 'hori', 'hori', 'hori', 'vert']","yes",109,"diamond","yes",0,NA,2,"legacy",NA,1024,2,48000,-16,"experiment",24,"even","green","no",0,"circle",393859.501800001,393886.752400002,393886.792000001,NA,402851.524200003,NA,NA,77606.0724000017,1429.95100000189,NA,77606.0940000025,497028.226600003,499508.383200002,NA,NA,NA,NA,1430.02820000038,403663.955,NA,NA,497028.241100001,404034.921400002,497028.177300002,"New experiment",19,"[0]","dist_present",56,16,"yes","yes",1680,NA,NA,NA,NA,"NR","NR","lp","Right",NA,NA,NA,NA,NA,"practice",3,"NR","in"
"30",938.768100000801,41269.3558999999,41269.3558999999,18,18,"y",3,"['6', '6', 'space']","n","#000000","no",485751.883100002,1,"neutral","psycho","psycho","psycho",0,"uniform",1,0,0,0,NA,0,0,NA,0,0,0,0,29,29,NA,NA,NA,NA,0,0,0,NA,29,0,29,73.2296414732588,"Thu Oct  7 15:29:32 2021","The main experiment item","yes","red","no","2","diamond",NA,"pinging_target_expectations 4.0.osexp","C:\Users\etp-cp-ping\Desktop\LocalPC-EXP",75,"no","mono","no",18,"no","white","no","yes",1050,NA,100,"psycho",29,0,29,"C:/Users/etp-cp-ping/Desktop/LocalPC-EXP/subject-24.csv","psycho",2,30,30,"Lentiform Loewenfeld","3.3.8","['hori', 'hori', 'vert', 'hori', 'vert', 'vert', 'hori', 'vert']","yes",109,"diamond","yes",0,NA,2,"legacy",NA,1024,2,48000,-16,"experiment",24,"even","green","no",5,"circle",393859.501800001,393886.752400002,393886.792000001,NA,402851.524200003,NA,NA,77606.0724000017,1429.95100000189,NA,77606.0940000025,499540.303000002,502404.3471,NA,NA,NA,NA,1430.02820000038,403663.955,NA,NA,499540.317800001,404034.921400002,499540.252900002,"New experiment",19,"[0]","dist_present",56,63,"yes","yes",1680,NA,NA,NA,NA,"NR","NR","lp",NA,NA,NA,NA,NA,NA,"practice",0,"NR","in"
"31",1308.29680000164,42577.6527000015,42577.6527000015,18,18,"y",3,"['6', '6', 'space']","n","#000000","no",485751.883100002,1,"neutral","psycho","psycho","psycho",0,"uniform",0,0,0,0,NA,0,0,NA,0,0,0,0,30,30,NA,NA,NA,NA,0,0,0,NA,30,0,30,73.2296414732588,"Thu Oct  7 15:29:32 2021","The main experiment item","yes","green","no","4","diamond",NA,"pinging_target_expectations 4.0.osexp","C:\Users\etp-cp-ping\Desktop\LocalPC-EXP",75,"no","mono","no",18,"no","white","no","yes",1050,NA,100,"psycho",30,0,30,"C:/Users/etp-cp-ping/Desktop/LocalPC-EXP/subject-24.csv","psycho",2,31,31,"Lentiform Loewenfeld","3.3.8","['vert', 'hori', 'hori', 'vert', 'hori', 'vert', 'hori', 'vert']","no",209,"None","yes",0,NA,2,"legacy",NA,1024,2,48000,-16,"experiment",24,"even","red","no",5,"circle",393859.501800001,393886.752400002,393886.792000001,NA,402851.524200003,NA,NA,77606.0724000017,1429.95100000189,NA,77606.0940000025,502435.170700002,505524.375500001,NA,NA,NA,NA,1430.02820000038,403663.955,NA,NA,502435.185300001,404034.921400002,502435.118600002,"New experiment",19,"[0]","dist_present",56,65,"yes","yes",1680,NA,NA,NA,NA,"R","NR","lp",NA,"Right",NA,NA,NA,NA,"practice",5,"NR","in"
"32",966.478700000152,43544.1314000017,43544.1314000017,18,18,"y",3,"['6', '6', 'space']","n","#000000","no",485751.883100002,1,"neutral","psycho","psycho","psycho",0,"uniform",0,0,0,0,NA,0,0,NA,0,0,0,0,31,31,NA,NA,NA,NA,0,0,0,NA,31,0,31,73.2296414732588,"Thu Oct  7 15:29:32 2021","The main experiment item","yes","green","no","5","circle",NA,"pinging_target_expectations 4.0.osexp","C:\Users\etp-cp-ping\Desktop\LocalPC-EXP",75,"no","mono","no",18,"no","white","no","yes",1050,NA,100,"psycho",31,0,31,"C:/Users/etp-cp-ping/Desktop/LocalPC-EXP/subject-24.csv","psycho",2,32,32,"Lentiform Loewenfeld","3.3.8","['hori', 'vert', 'vert', 'hori', 'hori', 'hori', 'vert', 'vert']","no",209,"None","yes",0,NA,2,"legacy",NA,1024,2,48000,-16,"experiment",24,"even","red","no",4,"diamond",393859.501800001,393886.752400002,393886.792000001,NA,402851.524200003,NA,NA,77606.0724000017,1429.95100000189,NA,77606.0940000025,505554.850700002,508404.3877,NA,NA,NA,NA,1430.02820000038,403663.955,NA,NA,505554.865600003,404034.921400002,505554.801000002,"New experiment",19,"[0]","dist_present",56,56,"yes","yes",1680,NA,NA,NA,NA,"NR","NR","lp","Right",NA,NA,NA,NA,NA,"practice",5,"R","in"
"33",2000.09249999863,45544.2239000003,45544.2239000003,18,18,"y",3,"['6', '6', 'space']","n","#000000","no",485751.883100002,1,"neutral","psycho","psycho","psycho",0,"uniform",0,0,0,0,NA,0,0,NA,0,0,0,0,32,32,NA,NA,NA,NA,0,0,0,NA,32,0,32,73.2296414732588,"Thu Oct  7 15:29:32 2021","The main experiment item","yes","green","no","None","circle",NA,"pinging_target_expectations 4.0.osexp","C:\Users\etp-cp-ping\Desktop\LocalPC-EXP",75,"no","mono","no",18,"no","white","no","yes",1050,NA,100,"psycho",32,0,32,"C:/Users/etp-cp-ping/Desktop/LocalPC-EXP/subject-24.csv","psycho",2,33,33,"Lentiform Loewenfeld","3.3.8","['hori', 'hori', 'hori', 'vert', 'hori', 'vert', 'vert', 'vert']","no",209,"None","yes",0,NA,2,"legacy",NA,1024,2,48000,-16,"experiment",24,"even","red","no",4,"diamond",393859.501800001,393886.752400002,393886.792000001,NA,402851.524200003,NA,NA,77606.0724000017,1429.95100000189,NA,77606.0940000025,508436.3748,512059.529300001,NA,NA,NA,NA,1430.02820000038,403663.955,NA,NA,508436.3896,404034.921400002,508436.324100003,"New experiment",19,"[0]","dist_absent",56,59,"yes","yes",1680,NA,NA,NA,NA,"R","NR","lp",NA,NA,NA,NA,NA,NA,"practice",4,"NR","in"
"34",1450.46139999974,46994.6853000001,46994.6853000001,19,19,"y",3,"['6', '6', 'space']","n","#000000","no",485751.883100002,1,"neutral","psycho","psycho","psycho",0,"uniform",1,0,0,0,NA,0,0,NA,0,0,0,0,33,33,NA,NA,NA,NA,0,0,0,NA,33,0,33,73.2296414732588,"Thu Oct  7 15:29:32 2021","The main experiment item","yes","green","no","3","circle",NA,"pinging_target_expectations 4.0.osexp","C:\Users\etp-cp-ping\Desktop\LocalPC-EXP",75,"no","mono","no",18,"no","white","no","yes",1050,NA,100,"psycho",33,0,33,"C:/Users/etp-cp-ping/Desktop/LocalPC-EXP/subject-24.csv","psycho",2,34,34,"Lentiform Loewenfeld","3.3.8","['hori', 'vert', 'vert', 'hori', 'hori', 'vert', 'vert', 'hori']","yes",109,"circles","yes",0,NA,2,"legacy",NA,1024,2,48000,-16,"experiment",24,"even","red","no",4,"diamond",393859.501800001,393886.752400002,393886.792000001,NA,402851.524200003,NA,NA,77606.0724000017,1429.95100000189,NA,77606.0940000025,512091.637400001,515332.364100002,NA,NA,NA,NA,1430.02820000038,403663.955,NA,NA,512091.6521,404034.921400002,512091.586900002,"New experiment",19,"[0, 75.84752264837182, 77.42178113957671, 76.92972236150008, 76.89435511235321, 77.43338078292174, 80.09519537566392, 80.03024233063492, 75.22899984044007, 75.24554346619863, 75.26221625948712, 74.90828816454408, 74.68184425500232, 73.89681759642329, 73.44182429921435]","dist_present",56,54,"yes","yes",1680,NA,NA,NA,NA,"R","NR","lp","Left",NA,NA,NA,NA,NA,"practice",4,"R","in"
"35",773.528600002464,47768.2139000025,47768.2139000025,20,20,"y",3,"['6', '6', 'space']","n","#000000","no",485751.883100002,1,"neutral","psycho","psycho","psycho",0,"uniform",1,0,0,0,NA,0,0,NA,0,0,0,0,34,34,NA,NA,NA,NA,0,0,0,NA,34,0,34,73.2296414732588,"Thu Oct  7 15:29:32 2021","The main experiment item","yes","green","no","None","diamond",NA,"pinging_target_expectations 4.0.osexp","C:\Users\etp-cp-ping\Desktop\LocalPC-EXP",75,"no","mono","no",18,"no","white","no","yes",1050,NA,100,"psycho",34,0,34,"C:/Users/etp-cp-ping/Desktop/LocalPC-EXP/subject-24.csv","psycho",2,35,35,"Lentiform Loewenfeld","3.3.8","['hori', 'hori', 'hori', 'vert', 'vert', 'hori', 'vert', 'vert']","yes",109,"circles","yes",0,NA,2,"legacy",NA,1024,2,48000,-16,"experiment",24,"even","red","no",1,"circle",393859.501800001,393886.752400002,393886.792000001,NA,402851.524200003,NA,NA,77606.0724000017,1429.95100000189,NA,77606.0940000025,515362.526200002,517956.474100003,NA,NA,NA,NA,1430.02820000038,403663.955,NA,NA,515362.540800001,404034.921400002,515362.4772,"New experiment",19,"[0]","dist_absent",56,29,"yes","yes",1680,NA,NA,NA,NA,"NR","NR","lp",NA,"Left",NA,NA,NA,NA,"practice",4,"R","in"
"36",827.121099999174,48595.3350000017,48595.3350000017,21,21,"y",3,"['6', '6', 'space']","n","#000000","no",485751.883100002,1,"neutral","psycho","psycho","psycho",0,"uniform",1,0,0,0,NA,0,0,NA,0,0,0,0,35,35,NA,NA,NA,NA,0,0,0,NA,35,0,35,73.2296414732588,"Thu Oct  7 15:29:32 2021","The main experiment item","yes","red","no","None","circle",NA,"pinging_target_expectations 4.0.osexp","C:\Users\etp-cp-ping\Desktop\LocalPC-EXP",75,"no","mono","no",18,"no","white","no","yes",1050,NA,100,"psycho",35,0,35,"C:/Users/etp-cp-ping/Desktop/LocalPC-EXP/subject-24.csv","psycho",2,36,36,"Lentiform Loewenfeld","3.3.8","['hori', 'hori', 'vert', 'hori', 'vert', 'vert', 'vert', 'hori']","no",209,"None","yes",0,NA,2,"legacy",NA,1024,2,48000,-16,"experiment",24,"even","green","no",2,"diamond",393859.501800001,393886.752400002,393886.792000001,NA,402851.524200003,NA,NA,77606.0724000017,1429.95100000189,NA,77606.0940000025,517986.7964,520788.556800002,NA,NA,NA,NA,1430.02820000038,403663.955,NA,NA,517986.8111,404034.921400002,517986.748000003,"New experiment",19,"[0]","dist_absent",56,39,"yes","yes",1680,NA,NA,NA,NA,"NR","R","lp",NA,"Left",NA,"Left",NA,NA,"practice",1,"NR","in"
"37",2000.60250000015,50595.9375000019,50595.9375000019,21,21,"y",3,"['6', '6', 'space']","n","#000000","no",485751.883100002,1,"neutral","psycho","psycho","psycho",0,"uniform",0,0,0,0,NA,0,0,NA,0,0,0,0,36,36,NA,NA,NA,NA,0,0,0,NA,36,0,36,73.2296414732588,"Thu Oct  7 15:29:32 2021","The main experiment item","yes","red","no","7","circle",NA,"pinging_target_expectations 4.0.osexp","C:\Users\etp-cp-ping\Desktop\LocalPC-EXP",75,"no","mono","no",18,"no","white","no","yes",1050,NA,100,"psycho",36,0,36,"C:/Users/etp-cp-ping/Desktop/LocalPC-EXP/subject-24.csv","psycho",2,37,37,"Lentiform Loewenfeld","3.3.8","['hori', 'hori', 'vert', 'vert', 'vert', 'hori', 'vert', 'hori']","no",209,"None","yes",0,NA,2,"legacy",NA,1024,2,48000,-16,"experiment",24,"even","green","no",2,"diamond",393859.501800001,393886.752400002,393886.792000001,NA,402851.524200003,NA,NA,77606.0724000017,1429.95100000189,NA,77606.0940000025,520818.862600001,524736.399200003,NA,NA,NA,NA,1430.02820000038,403663.955,NA,NA,520818.877100002,404034.921400002,520818.812700003,"New experiment",19,"[0]","dist_present",56,38,"yes","yes",1680,NA,NA,NA,NA,"R","NR","lp",NA,NA,NA,NA,NA,NA,"practice",2,"NR","in"
"38",831.897500000196,51427.8350000021,51427.8350000021,22,22,"y",3,"['6', '6', 'space']","n","#000000","no",526251.247,1,"neutral","psycho","psycho","psycho",0,"uniform",1,0,0,0,NA,0,0,NA,0,0,0,0,37,37,NA,NA,NA,NA,0,0,0,NA,37,0,37,73.2296414732588,"Thu Oct  7 15:29:32 2021","The main experiment item","yes","green","no","0","diamond",NA,"pinging_target_expectations 4.0.osexp","C:\Users\etp-cp-ping\Desktop\LocalPC-EXP",75,"no","mono","no",18,"no","white","no","yes",1050,NA,100,"psycho",37,0,37,"C:/Users/etp-cp-ping/Desktop/LocalPC-EXP/subject-24.csv","psycho",3,38,38,"Lentiform Loewenfeld","3.3.8","['vert', 'vert', 'vert', 'hori', 'hori', 'hori', 'vert', 'hori']","yes",109,"circles","yes",0,NA,2,"legacy",NA,1024,2,48000,-16,"experiment",24,"even","red","no",7,"circle",393859.501800001,393886.752400002,393886.792000001,NA,402851.524200003,NA,NA,77606.0724000017,1429.95100000189,NA,77606.0940000025,524766.609100003,527332.5596,NA,NA,NA,NA,1430.02820000038,403663.955,NA,NA,524766.624400003,404034.921400002,524766.558000003,"New experiment",19,"[0, 73.80432357735714, 73.90435432955174, 73.90029508250961, 73.9006332927869, 80.67646410417174, 80.13699605804538, 76.43306571868517, 76.36918843287047, 81.09503295589646, 87.61564773084262, 87.5648196711622, 87.51699145151896, 88.09233619359269, 89.01827582118476, 88.46858560895267, 84.94161916865303, 85.35298085206122, 86.61042471288283, 79.30001126802898, 79.22329863975357, 77.52421701399865, 89.86580020173989, 110.77697189597464, 138.66670593359245, 157.95218803047152, 180.32799382360358, 201.50418161298708, 220.06583234661133, 242.11393256641517, 264.7844666779871, 281.883590319146, 301.0882189870499, 324.09734817074445, 339.80073146191296, 363.5897947484431, 384.4587637007763, 406.9219577777541, 427.78112533042525, 448.7717000705145, 463.3710122990687, 497.60569032807064, 510.91274132960535, 532.031615468854, 555.0027875422699, 571.6714528468253, 591.3036942948368, 612.7619341628407]","dist_present",56,81,"yes","no",1680,NA,NA,NA,NA,"NR","NR","lp",NA,"Right",NA,NA,NA,NA,"practice",2,"R","in"
"39",1735.64609999815,53163.4811000002,53163.4811000002,23,23,"y",3,"['6', '6', 'space']","n","#000000","no",526251.247,1,"neutral","psycho","psycho","psycho",0,"uniform",1,0,0,0,NA,0,0,NA,0,0,0,0,38,38,NA,NA,NA,NA,0,0,0,NA,38,0,38,73.2296414732588,"Thu Oct  7 15:29:32 2021","The main experiment item","yes","red","no","3","diamond",NA,"pinging_target_expectations 4.0.osexp","C:\Users\etp-cp-ping\Desktop\LocalPC-EXP",75,"no","mono","no",18,"no","white","no","yes",1050,NA,100,"psycho",38,0,38,"C:/Users/etp-cp-ping/Desktop/LocalPC-EXP/subject-24.csv","psycho",3,39,39,"Lentiform Loewenfeld","3.3.8","['hori', 'hori', 'hori', 'vert', 'vert', 'vert', 'vert', 'hori']","no",209,"None","yes",0,NA,2,"legacy",NA,1024,2,48000,-16,"experiment",24,"even","green","no",1,"circle",393859.501800001,393886.752400002,393886.792000001,NA,402851.524200003,NA,NA,77606.0724000017,1429.95100000189,NA,77606.0940000025,527362.970900001,530964.389200002,NA,NA,NA,NA,1430.02820000038,403663.955,NA,NA,527362.985800002,404034.921400002,527362.920900003,"New experiment",19,"[0]","dist_present",56,24,"yes","yes",1680,NA,NA,NA,NA,"NR","NR","lp",NA,NA,NA,NA,NA,NA,"practice",7,"NR","in"
"40",959.511099998024,54122.9921999982,54122.9921999982,23,23,"y",3,"['6', '6', 'space']","n","#000000","no",526251.247,1,"neutral","psycho","psycho","psycho",0,"uniform",0,0,0,0,NA,0,0,NA,0,0,0,0,39,39,NA,NA,NA,NA,0,0,0,NA,39,0,39,73.2296414732588,"Thu Oct  7 15:29:32 2021","The main experiment item","yes","red","no","1","circle",NA,"pinging_target_expectations 4.0.osexp","C:\Users\etp-cp-ping\Desktop\LocalPC-EXP",75,"no","mono","no",18,"no","white","no","yes",1050,NA,100,"psycho",39,0,39,"C:/Users/etp-cp-ping/Desktop/LocalPC-EXP/subject-24.csv","psycho",3,40,40,"Lentiform Loewenfeld","3.3.8","['hori', 'vert', 'hori', 'hori', 'vert', 'vert', 'hori', 'vert']","yes",109,"diamond","yes",0,NA,2,"legacy",NA,1024,2,48000,-16,"experiment",24,"even","green","no",0,"diamond",393859.501800001,393886.752400002,393886.792000001,NA,402851.524200003,NA,NA,77606.0724000017,1429.95100000189,NA,77606.0940000025,530994.621199999,533764.408400002,NA,NA,NA,NA,1430.02820000038,403663.955,NA,NA,530994.635900002,404034.921400002,530994.570900002,"New experiment",19,"[0]","dist_present",56,12,"yes","yes",1680,NA,NA,NA,NA,"NR","NR","lp","Left",NA,NA,NA,NA,NA,"practice",1,"NR","in"
"41",2000.55670000077,56123.548899999,56123.548899999,23,23,"y",3,"['6', '6', 'space']","n","#000000","no",526251.247,1,"neutral","psycho","psycho","psycho",0,"uniform",0,0,0,0,NA,0,0,NA,0,0,0,0,40,40,NA,NA,NA,NA,0,0,0,NA,40,0,40,73.2296414732588,"Thu Oct  7 15:29:32 2021","The main experiment item","yes","green","no","5","circle",NA,"pinging_target_expectations 4.0.osexp","C:\Users\etp-cp-ping\Desktop\LocalPC-EXP",75,"no","mono","no",18,"no","white","no","yes",1050,NA,100,"psycho",40,0,40,"C:/Users/etp-cp-ping/Desktop/LocalPC-EXP/subject-24.csv","psycho",3,41,41,"Lentiform Loewenfeld","3.3.8","['vert', 'vert', 'hori', 'hori', 'hori', 'vert', 'hori', 'vert']","yes",109,"diamond","yes",0,NA,2,"legacy",NA,1024,2,48000,-16,"experiment",24,"even","red","no",7,"diamond",393859.501800001,393886.752400002,393886.792000001,NA,402851.524200003,NA,NA,77606.0724000017,1429.95100000189,NA,77606.0940000025,533794.7045,537914.173000001,NA,NA,NA,NA,1430.02820000038,403663.955,NA,NA,533794.719500002,404034.921400002,533794.654100002,"New experiment",19,"[0]","dist_present",56,86,"yes","yes",1680,NA,NA,NA,NA,"NR","NR","lp",NA,NA,NA,NA,NA,NA,"practice",0,"NR","in"
"42",772.900600000867,56896.4494999999,56896.4494999999,23,23,"y",3,"['6', '6', 'space']","n","#000000","no",538723.502500001,1,"neutral","psycho","psycho","psycho",0,"uniform",0,0,0,0,NA,0,0,NA,0,0,0,0,41,41,NA,NA,NA,NA,0,0,0,NA,41,0,41,73.2296414732588,"Thu Oct  7 15:29:32 2021","The main experiment item","yes","green","no","2","circle",NA,"pinging_target_expectations 4.0.osexp","C:\Users\etp-cp-ping\Desktop\LocalPC-EXP",75,"no","mono","no",18,"no","white","no","yes",1050,NA,100,"psycho",41,0,41,"C:/Users/etp-cp-ping/Desktop/LocalPC-EXP/subject-24.csv","psycho",4,42,42,"Lentiform Loewenfeld","3.3.8","['vert', 'vert', 'hori', 'hori', 'vert', 'hori', 'vert', 'hori']","no",209,"None","yes",0,NA,2,"legacy",NA,1024,2,48000,-16,"experiment",24,"even","red","no",4,"diamond",393859.501800001,393886.752400002,393886.792000001,NA,402851.524200003,NA,NA,77606.0724000017,1429.95100000189,NA,77606.0940000025,537944.251600002,540532.370200002,NA,NA,NA,NA,1430.02820000038,403663.955,NA,NA,537944.266400002,404034.921400002,537944.202900002,"New experiment",19,"[0, 73.41965674187325, 75.22470803678367, 75.58438992278762, 77.65489375702191, 77.6121905239126, 78.9715274927692, 88.98009062886432, 96.63047901722521, 104.15229392380462, 118.46930458110229, 127.05277525578066, 143.12522079677709, 156.6243261314602, 177.6844376137606, 183.55646178515818, 202.27431153494092, 215.5691226569036, 236.3080333504912, 256.0215637471105, 269.01020086864264, 286.9759731749128, 300.6035595264966, 320.1915210942738, 331.5136587237559, 347.7692322944401, 359.84962794401565, 375.69911928619484, 386.09122060710337, 395.47268256020914, 412.05493702948377, 428.26627231198114, 441.6232465015697, 456.3268917816334, 460.0363819628758, 483.8890481786772, 498.3472274346447, 509.63794484341463, 526.1195694120894]","dist_present",56,53,"yes","no",1680,NA,NA,NA,NA,"NR","NR","lp","Left",NA,"Left",NA,NA,NA,"practice",7,"NR","in"
"43",910.622399998829,57807.0718999987,57807.0718999987,23,23,"y",3,"['6', '6', 'space']","n","#000000","no",538723.502500001,1,"neutral","psycho","psycho","psycho",0,"uniform",0,0,0,0,NA,0,0,NA,0,0,0,0,42,42,NA,NA,NA,NA,0,0,0,NA,42,0,42,73.2296414732588,"Thu Oct  7 15:29:32 2021","The main experiment item","yes","red","no","6","circle",NA,"pinging_target_expectations 4.0.osexp","C:\Users\etp-cp-ping\Desktop\LocalPC-EXP",75,"no","mono","no",18,"no","white","no","yes",1050,NA,100,"psycho",42,0,42,"C:/Users/etp-cp-ping/Desktop/LocalPC-EXP/subject-24.csv","psycho",4,43,43,"Lentiform Loewenfeld","3.3.8","['hori', 'hori', 'hori', 'vert', 'vert', 'vert', 'vert', 'hori']","no",209,"None","yes",0,NA,2,"legacy",NA,1024,2,48000,-16,"experiment",24,"even","green","no",0,"diamond",393859.501800001,393886.752400002,393886.792000001,NA,402851.524200003,NA,NA,77606.0724000017,1429.95100000189,NA,77606.0940000025,540562.746300002,543284.391600002,NA,NA,NA,NA,1430.02820000038,403663.955,NA,NA,540562.761100002,404034.921400002,540562.696500001,"New experiment",19,"[0]","dist_present",56,17,"yes","yes",1680,NA,NA,NA,NA,"NR","NR","lp","Right",NA,"Right",NA,NA,NA,"practice",4,"NR","in"
"44",791.481399999582,58598.5532999983,58598.5532999983,24,24,"y",3,"['6', '6', 'space']","n","#000000","no",538723.502500001,1,"neutral","psycho","psycho","psycho",0,"uniform",1,0,0,0,NA,0,0,NA,0,0,0,0,43,43,NA,NA,NA,NA,0,0,0,NA,43,0,43,73.2296414732588,"Thu Oct  7 15:29:32 2021","The main experiment item","yes","red","no","5","circle",NA,"pinging_target_expectations 4.0.osexp","C:\Users\etp-cp-ping\Desktop\LocalPC-EXP",75,"no","mono","no",18,"no","white","no","yes",1050,NA,100,"psycho",43,0,43,"C:/Users/etp-cp-ping/Desktop/LocalPC-EXP/subject-24.csv","psycho",4,44,44,"Lentiform Loewenfeld","3.3.8","['hori', 'hori', 'vert', 'vert', 'vert', 'hori', 'hori', 'vert']","no",209,"None","yes",0,NA,2,"legacy",NA,1024,2,48000,-16,"experiment",24,"even","green","no",3,"diamond",393859.501800001,393886.752400002,393886.792000001,NA,402851.524200003,NA,NA,77606.0724000017,1429.95100000189,NA,77606.0940000025,543314.65,545988.5436,NA,NA,NA,NA,1430.02820000038,403663.955,NA,NA,543314.664500002,404034.921400002,543314.599900001,"New experiment",19,"[0]","dist_present",56,46,"yes","yes",1680,NA,NA,NA,NA,"NR","NR","lp",NA,NA,NA,NA,NA,NA,"practice",0,"NR","in"
"45",667.194800000289,59265.7480999986,59265.7480999986,25,25,"y",3,"['6', '6', 'space']","n","#000000","no",538723.502500001,1,"neutral","psycho","psycho","psycho",0,"uniform",1,0,0,0,NA,0,0,NA,0,0,0,0,44,44,NA,NA,NA,NA,0,0,0,NA,44,0,44,73.2296414732588,"Thu Oct  7 15:29:32 2021","The main experiment item","yes","red","no","None","circle",NA,"pinging_target_expectations 4.0.osexp","C:\Users\etp-cp-ping\Desktop\LocalPC-EXP",75,"no","mono","no",18,"no","white","no","yes",1050,NA,100,"psycho",44,0,44,"C:/Users/etp-cp-ping/Desktop/LocalPC-EXP/subject-24.csv","psycho",4,45,45,"Lentiform Loewenfeld","3.3.8","['hori', 'hori', 'vert', 'hori', 'vert', 'vert', 'vert', 'hori']","yes",109,"circles","yes",0,NA,2,"legacy",NA,1024,2,48000,-16,"experiment",24,"even","green","no",4,"diamond",393859.501800001,393886.752400002,393886.792000001,NA,402851.524200003,NA,NA,77606.0724000017,1429.95100000189,NA,77606.0940000025,546018.8218,548532.4234,NA,NA,NA,NA,1430.02820000038,403663.955,NA,NA,546018.8371,404034.921400002,546018.765600002,"New experiment",19,"[0, 73.22964387587719]","dist_absent",56,59,"yes","yes",1680,NA,NA,NA,NA,"NR","NR","lp",NA,NA,NA,NA,NA,NA,"practice",3,"NR","in"
"46",2000.2090999987,61265.9571999973,61265.9571999973,25,25,"y",3,"['6', '6', 'space']","n","#000000","no",538723.502500001,1,"neutral","psycho","psycho","psycho",0,"uniform",0,0,0,0,NA,0,0,NA,0,0,0,0,45,45,NA,NA,NA,NA,0,0,0,NA,45,0,45,73.2296414732588,"Thu Oct  7 15:29:32 2021","The main experiment item","yes","green","no","6","diamond",NA,"pinging_target_expectations 4.0.osexp","C:\Users\etp-cp-ping\Desktop\LocalPC-EXP",75,"no","mono","no",18,"no","white","no","yes",1050,NA,100,"psycho",45,0,45,"C:/Users/etp-cp-ping/Desktop/LocalPC-EXP/subject-24.csv","psycho",4,46,46,"Lentiform Loewenfeld","3.3.8","['vert', 'vert', 'hori', 'vert', 'hori', 'vert', 'hori', 'hori']","yes",109,"diamond","yes",0,NA,2,"legacy",NA,1024,2,48000,-16,"experiment",24,"even","red","no",7,"circle",393859.501800001,393886.752400002,393886.792000001,NA,402851.524200003,NA,NA,77606.0724000017,1429.95100000189,NA,77606.0940000025,548562.646500002,552549.1788,NA,NA,NA,NA,1430.02820000038,403663.955,NA,NA,548562.661200001,404034.921400002,548562.596200001,"New experiment",19,"[0]","dist_present",56,87,"yes","yes",1680,NA,NA,NA,NA,"NR","NR","lp",NA,NA,NA,NA,NA,NA,"practice",4,"NR","in"
"47",770.868299998343,62036.8254999956,62036.8254999956,25,25,"y",3,"['6', '6', 'space']","n","#000000","no",538723.502500001,1,"neutral","psycho","psycho","psycho",0,"uniform",0,0,0,0,NA,0,0,NA,0,0,0,0,46,46,NA,NA,NA,NA,0,0,0,NA,46,0,46,73.2296414732588,"Thu Oct  7 15:29:32 2021","The main experiment item","yes","red","no","3","diamond",NA,"pinging_target_expectations 4.0.osexp","C:\Users\etp-cp-ping\Desktop\LocalPC-EXP",75,"no","mono","no",18,"no","white","no","yes",1050,NA,100,"psycho",46,0,46,"C:/Users/etp-cp-ping/Desktop/LocalPC-EXP/subject-24.csv","psycho",4,47,47,"Lentiform Loewenfeld","3.3.8","['hori', 'vert', 'vert', 'hori', 'vert', 'vert', 'hori', 'hori']","yes",109,"diamond","yes",0,NA,2,"legacy",NA,1024,2,48000,-16,"experiment",24,"even","green","no",6,"circle",393859.501800001,393886.752400002,393886.792000001,NA,402851.524200003,NA,NA,77606.0724000017,1429.95100000189,NA,77606.0940000025,552579.397200003,555220.401000002,NA,NA,NA,NA,1430.02820000038,403663.955,NA,NA,552579.411500003,404034.921400002,552579.347300001,"New experiment",19,"[0]","dist_present",56,74,"yes","yes",1680,NA,NA,NA,NA,"NR","NR","lp",NA,NA,NA,NA,NA,NA,"practice",7,"NR","in"
"48",770.557699997909,62807.3831999935,62807.3831999935,26,26,"y",3,"['6', '6', 'space']","n","#000000","no",538723.502500001,1,"neutral","psycho","psycho","psycho",0,"uniform",1,0,0,0,NA,0,0,NA,0,0,0,0,47,47,NA,NA,NA,NA,0,0,0,NA,47,0,47,73.2296414732588,"Thu Oct  7 15:29:32 2021","The main experiment item","yes","green","no","1","circle",NA,"pinging_target_expectations 4.0.osexp","C:\Users\etp-cp-ping\Desktop\LocalPC-EXP",75,"no","mono","no",18,"no","white","no","yes",1050,NA,100,"psycho",47,0,47,"C:/Users/etp-cp-ping/Desktop/LocalPC-EXP/subject-24.csv","psycho",4,48,48,"Lentiform Loewenfeld","3.3.8","['hori', 'hori', 'vert', 'hori', 'vert', 'vert', 'vert', 'hori']","no",209,"None","yes",0,NA,2,"legacy",NA,1024,2,48000,-16,"experiment",24,"even","red","no",3,"diamond",393859.501800001,393886.752400002,393886.792000001,NA,402851.524200003,NA,NA,77606.0724000017,1429.95100000189,NA,77606.0940000025,555250.825400002,557924.456200002,NA,NA,NA,NA,1430.02820000038,403663.955,NA,NA,555250.840100001,404034.921400002,555250.774600001,"New experiment",19,"[0]","dist_present",56,42,"yes","yes",1680,NA,NA,NA,NA,"NR","NR","lp",NA,NA,NA,NA,NA,NA,"practice",6,"NR","in"
"49",796.875600000843,63604.2587999944,63604.2587999944,27,27,"y",3,"['6', '6', 'space']","n","#000000","no",538723.502500001,1,"neutral","psycho","psycho","psycho",0,"uniform",1,0,0,0,NA,0,0,NA,0,0,0,0,48,48,NA,NA,NA,NA,0,0,0,NA,48,0,48,73.2296414732588,"Thu Oct  7 15:29:32 2021","The main experiment item","yes","green","no","0","circle",NA,"pinging_target_expectations 4.0.osexp","C:\Users\etp-cp-ping\Desktop\LocalPC-EXP",75,"no","mono","no",18,"no","white","no","yes",1050,NA,100,"psycho",48,0,48,"C:/Users/etp-cp-ping/Desktop/LocalPC-EXP/subject-24.csv","psycho",4,49,49,"Lentiform Loewenfeld","3.3.8","['hori', 'vert', 'vert', 'hori', 'vert', 'hori', 'vert', 'hori']","yes",109,"circles","yes",0,NA,2,"legacy",NA,1024,2,48000,-16,"experiment",24,"even","red","no",7,"diamond",393859.501800001,393886.752400002,393886.792000001,NA,402851.524200003,NA,NA,77606.0724000017,1429.95100000189,NA,77606.0940000025,557954.875200001,560452.4208,NA,NA,NA,NA,1430.02820000038,403663.955,NA,NA,557954.890200002,404034.921400002,557954.826000001,"New experiment",19,"[0, 74.2230474742703, 73.92191141209182, 74.5861222109381, 74.5555409020652, 73.47994958302164, 73.2524938082069, 74.25107993217972, 77.12962186693407, 77.23949509189538, 74.7115170262777, 74.06769147153884, 73.80817984553013, 76.0345100353079, 75.64213224394494, 77.1140856590516, 77.37242304687555, 76.03850351048492, 75.97713066947723, 75.75520581779736, 75.85778319648631, 75.48097681752948, 76.18142238243871, 74.94974054924428, 73.49319696407281, 73.44684840764629, 73.40744614420807, 74.77661248614096, 75.45395340519542, 77.21720874689075, 75.60588601425157, 76.21153102344977, 75.90228163515555, 74.73925612588472, 75.4360732505456, 73.91382724106917, 75.1482028566144, 74.65455364793121, 76.94911851880764, 78.09351209197932, 76.35109462790338, 74.91662031885849, 75.86357113780993, 75.60746117967, 75.16808047479844, 77.78441680727617, 73.42768032753345, 73.70546862993123, 74.07089474774295, 75.39767525324866, 77.61235983036335, 74.35936987813349]","dist_present",56,81,"yes","yes",1680,NA,NA,NA,NA,"NR","NR","lp",NA,"Right",NA,NA,NA,NA,"practice",3,"NR","in"
"50",987.68530000234,64591.9440999967,64591.9440999967,28,28,"y",3,"['6', '6', 'space']","n","#000000","no",538723.502500001,1,"neutral","psycho","psycho","psycho",0,"uniform",1,0,0,0,NA,0,0,NA,0,0,0,0,49,49,NA,NA,NA,NA,0,0,0,NA,49,0,49,73.2296414732588,"Thu Oct  7 15:29:32 2021","The main experiment item","yes","green","no","7","diamond",NA,"pinging_target_expectations 4.0.osexp","C:\Users\etp-cp-ping\Desktop\LocalPC-EXP",75,"no","mono","no",18,"no","white","no","yes",1050,NA,100,"psycho",49,0,49,"C:/Users/etp-cp-ping/Desktop/LocalPC-EXP/subject-24.csv","psycho",4,50,50,"Lentiform Loewenfeld","3.3.8","['vert', 'hori', 'hori', 'vert', 'hori', 'vert', 'hori', 'vert']","no",209,"None","yes",0,NA,2,"legacy",NA,1024,2,48000,-16,"experiment",24,"even","red","no",3,"circle",393859.501800001,393886.752400002,393886.792000001,NA,402851.524200003,NA,NA,77606.0724000017,1429.95100000189,NA,77606.0940000025,560482.785200002,563428.5643,NA,NA,NA,NA,1430.02820000038,403663.955,NA,NA,560482.8003,404034.921400002,560482.7353,"New experiment",19,"[0]","dist_present",56,48,"yes","yes",1680,NA,NA,NA,NA,"NR","NR","lp",NA,NA,NA,NA,NA,NA,"practice",7,"NR","in"
"51",1796.8189999992,66388.7630999959,66388.7630999959,29,29,"y",3,"['6', '6', 'space']","n","#000000","no",538723.502500001,1,"neutral","psycho","psycho","psycho",0,"uniform",1,0,0,0,NA,0,0,NA,0,0,0,0,50,50,NA,NA,NA,NA,0,0,0,NA,50,0,50,73.2296414732588,"Thu Oct  7 15:29:32 2021","The main experiment item","yes","red","no","None","circle",NA,"pinging_target_expectations 4.0.osexp","C:\Users\etp-cp-ping\Desktop\LocalPC-EXP",75,"no","mono","no",18,"no","white","no","yes",1050,NA,100,"psycho",50,0,50,"C:/Users/etp-cp-ping/Desktop/LocalPC-EXP/subject-24.csv","psycho",4,51,51,"Lentiform Loewenfeld","3.3.8","['vert', 'hori', 'hori', 'vert', 'hori', 'hori', 'vert', 'vert']","no",209,"None","yes",0,NA,2,"legacy",NA,1024,2,48000,-16,"experiment",24,"even","green","no",2,"diamond",393859.501800001,393886.752400002,393886.792000001,NA,402851.524200003,NA,NA,77606.0724000017,1429.95100000189,NA,77606.0940000025,563459.022800002,567044.435100001,NA,NA,NA,NA,1430.02820000038,403663.955,NA,NA,563459.037800003,404034.921400002,563458.973500001,"New experiment",19,"[0]","dist_absent",56,39,"yes","yes",1680,NA,NA,NA,NA,"NR","NR","lp",NA,"Left",NA,"Left",NA,NA,"practice",3,"NR","in"
"52",2000.31339999987,68389.0764999958,68389.0764999958,29,29,"y",3,"['6', '6', 'space']","n","#000000","no",569081.046300002,1,"neutral","psycho","psycho","psycho",0,"uniform",0,0,0,0,NA,0,0,NA,0,0,0,0,51,51,NA,NA,NA,NA,0,0,0,NA,51,0,51,73.2296414732588,"Thu Oct  7 15:29:32 2021","The main experiment item","yes","green","no","2","circle",NA,"pinging_target_expectations 4.0.osexp","C:\Users\etp-cp-ping\Desktop\LocalPC-EXP",75,"no","mono","no",18,"no","white","no","yes",1050,NA,100,"psycho",51,0,51,"C:/Users/etp-cp-ping/Desktop/LocalPC-EXP/subject-24.csv","psycho",6,52,52,"Lentiform Loewenfeld","3.3.8","['vert', 'vert', 'hori', 'vert', 'hori', 'hori', 'hori', 'vert']","yes",109,"circles","yes",0,NA,2,"legacy",NA,1024,2,48000,-16,"experiment",24,"even","red","no",6,"diamond",393859.501800001,393886.752400002,393886.792000001,NA,402851.524200003,NA,NA,77606.0724000017,1429.95100000189,NA,77606.0940000025,567074.764600002,570933.225100001,NA,NA,NA,NA,1430.02820000038,403663.955,NA,NA,567074.779400002,404034.921400002,567074.716000003,"New experiment",19,"[0]","dist_present",56,73,"yes","yes",1680,NA,NA,NA,NA,"NR","NR","lp",NA,NA,NA,NA,NA,NA,"practice",2,"NR","in"
"53",675.430999999633,69064.5074999954,69064.5074999954,29,29,"y",3,"['6', '6', 'space']","n","#000000","no",569081.046300002,1,"neutral","psycho","psycho","psycho",0,"uniform",0,0,0,0,NA,0,0,NA,0,0,0,0,52,52,NA,NA,NA,NA,0,0,0,NA,52,0,52,73.2296414732588,"Thu Oct  7 15:29:32 2021","The main experiment item","yes","green","no","4","diamond",NA,"pinging_target_expectations 4.0.osexp","C:\Users\etp-cp-ping\Desktop\LocalPC-EXP",75,"no","mono","no",18,"no","white","no","yes",1050,NA,100,"psycho",52,0,52,"C:/Users/etp-cp-ping/Desktop/LocalPC-EXP/subject-24.csv","psycho",6,53,53,"Lentiform Loewenfeld","3.3.8","['vert', 'hori', 'hori', 'vert', 'vert', 'hori', 'hori', 'vert']","yes",109,"diamond","yes",0,NA,2,"legacy",NA,1024,2,48000,-16,"experiment",24,"even","red","no",5,"circle",393859.501800001,393886.752400002,393886.792000001,NA,402851.524200003,NA,NA,77606.0724000017,1429.95100000189,NA,77606.0940000025,570963.530700003,573444.472500003,NA,NA,NA,NA,1430.02820000038,403663.955,NA,NA,570963.544900002,404034.921400002,570963.481800001,"New experiment",19,"[0]","dist_present",56,65,"yes","yes",1680,NA,NA,NA,NA,"NR","NR","lp",NA,"Right",NA,NA,NA,NA,"practice",6,"NR","in"
"54",712.863500000793,69777.3709999962,69777.3709999962,29,29,"y",3,"['6', '6', 'space']","n","#000000","no",569081.046300002,1,"neutral","psycho","psycho","psycho",0,"uniform",0,0,0,0,NA,0,0,NA,0,0,0,0,53,53,NA,NA,NA,NA,0,0,0,NA,53,0,53,73.2296414732588,"Thu Oct  7 15:29:32 2021","The main experiment item","yes","red","no","1","diamond",NA,"pinging_target_expectations 4.0.osexp","C:\Users\etp-cp-ping\Desktop\LocalPC-EXP",75,"no","mono","no",18,"no","white","no","yes",1050,NA,100,"psycho",53,0,53,"C:/Users/etp-cp-ping/Desktop/LocalPC-EXP/subject-24.csv","psycho",6,54,54,"Lentiform Loewenfeld","3.3.8","['hori', 'hori', 'hori', 'hori', 'vert', 'vert', 'vert', 'vert']","no",209,"None","yes",0,NA,2,"legacy",NA,1024,2,48000,-16,"experiment",24,"even","green","no",5,"circle",393859.501800001,393886.752400002,393886.792000001,NA,402851.524200003,NA,NA,77606.0724000017,1429.95100000189,NA,77606.0940000025,573474.843700002,576100.4693,NA,NA,NA,NA,1430.02820000038,403663.955,NA,NA,573474.858700003,404034.921400002,573474.7928,"New experiment",19,"[0]","dist_present",56,62,"yes","yes",1680,NA,NA,NA,NA,"R","NR","lp",NA,NA,NA,NA,NA,NA,"practice",5,"NR","in"
"55",1633.20189999649,71410.5728999927,71410.5728999927,29,29,"y",3,"['6', '6', 'space']","n","#000000","no",569081.046300002,1,"neutral","psycho","psycho","psycho",0,"uniform",0,0,0,0,NA,0,0,NA,0,0,0,0,54,54,NA,NA,NA,NA,0,0,0,NA,54,0,54,73.2296414732588,"Thu Oct  7 15:29:32 2021","The main experiment item","yes","red","no","5","circle",NA,"pinging_target_expectations 4.0.osexp","C:\Users\etp-cp-ping\Desktop\LocalPC-EXP",75,"no","mono","no",18,"no","white","no","yes",1050,NA,100,"psycho",54,0,54,"C:/Users/etp-cp-ping/Desktop/LocalPC-EXP/subject-24.csv","psycho",6,55,55,"Lentiform Loewenfeld","3.3.8","['vert', 'vert', 'hori', 'vert', 'hori', 'hori', 'vert', 'hori']","yes",109,"circles","yes",0,NA,2,"legacy",NA,1024,2,48000,-16,"experiment",24,"even","green","no",0,"diamond",393859.501800001,393886.752400002,393886.792000001,NA,402851.524200003,NA,NA,77606.0724000017,1429.95100000189,NA,77606.0940000025,576130.779800002,579524.4165,NA,NA,NA,NA,1430.02820000038,403663.955,NA,NA,576130.7944,404034.921400002,576130.726900003,"New experiment",19,"[0]","dist_present",56,16,"yes","yes",1680,NA,NA,NA,NA,"NR","NR","lp","Right",NA,NA,NA,NA,NA,"practice",5,"R","in"
"56",813.850200000103,72224.4230999928,72224.4230999928,30,30,"y",3,"['6', '6', 'space']","n","#000000","no",569081.046300002,1,"neutral","psycho","psycho","psycho",0,"uniform",1,0,0,0,NA,0,0,NA,0,0,0,0,55,55,NA,NA,NA,NA,0,0,0,NA,55,0,55,73.2296414732588,"Thu Oct  7 15:29:32 2021","The main experiment item","yes","red","no","None","diamond",NA,"pinging_target_expectations 4.0.osexp","C:\Users\etp-cp-ping\Desktop\LocalPC-EXP",75,"no","mono","no",18,"no","white","no","yes",1050,NA,100,"psycho",55,0,55,"C:/Users/etp-cp-ping/Desktop/LocalPC-EXP/subject-24.csv","psycho",6,56,56,"Lentiform Loewenfeld","3.3.8","['vert', 'hori', 'vert', 'hori', 'hori', 'vert', 'hori', 'vert']","no",209,"None","yes",0,NA,2,"legacy",NA,1024,2,48000,-16,"experiment",24,"even","green","no",0,"circle",393859.501800001,393886.752400002,393886.792000001,NA,402851.524200003,NA,NA,77606.0724000017,1429.95100000189,NA,77606.0940000025,579554.8198,582292.478900003,NA,NA,NA,NA,1430.02820000038,403663.955,NA,NA,579554.834500002,404034.921400002,579554.7702,"New experiment",19,"[0]","dist_absent",56,19,"yes","yes",1680,NA,NA,NA,NA,"R","NR","lp",NA,NA,NA,NA,NA,NA,"practice",0,"NR","in"
"57",1419.19119999872,1419.19119999872,73643.6142999915,0,30,"y",3,"['6', '6', 'space']","n","#000000","no",569081.046300002,2,"bias","psycho","psycho","psycho",0,"uniform",0,0,1,1,NA,1,0,NA,0,0,1,0,56,56,NA,NA,NA,NA,0,1,1,NA,56,1,56,73.2296414732588,"Thu Oct  7 15:29:32 2021","The main experiment item","yes","red","no","None","circle",NA,"pinging_target_expectations 4.0.osexp","C:\Users\etp-cp-ping\Desktop\LocalPC-EXP",75,"no","mono","no",18,"no","white","no","yes",1050,NA,0,"psycho",0,1,0,"C:/Users/etp-cp-ping/Desktop/LocalPC-EXP/subject-24.csv","psycho",0,57,1,"Lentiform Loewenfeld","3.3.8","['vert', 'vert', 'hori', 'hori', 'hori', 'hori', 'vert', 'vert']","no",200,"None","no",0,NA,2,"legacy",NA,1024,2,48000,-16,"experiment",24,"even","green","yes",0,"diamond",393859.501800001,614439.595,614439.642700003,NA,659704.925400001,NA,NA,77606.0724000017,1429.95100000189,582828.455000003,77606.0940000025,661284.0216,664628.585800001,NA,NA,NA,NA,1430.02820000038,660904.6199,582322.1223,NA,661284.0392,661279.713300002,661283.9465,"New experiment",19,"[0]","dist_absent",56,19,"yes","yes",1680,-13.791721729086,-47.5525045598251,"more toward","False","NR","NR","lp",NA,NA,NA,NA,0,NA,"first",999,"R","in"
"58",1012.09729999758,2431.2884999963,74655.7115999891,1,31,"y",3,"['6', '6', 'space']","n","#000000","no",569081.046300002,2,"bias","psycho","psycho","psycho",0,"uniform",1,0,1,1,NA,1,0,NA,0,0,1,0,57,57,NA,NA,NA,NA,0,1,1,NA,57,1,57,73.2296414732588,"Thu Oct  7 15:29:32 2021","The main experiment item","yes","red","no","2","circle",NA,"pinging_target_expectations 4.0.osexp","C:\Users\etp-cp-ping\Desktop\LocalPC-EXP",75,"no","mono","no",18,"no","white","no","yes",1050,NA,0,"psycho",1,1,1,"C:/Users/etp-cp-ping/Desktop/LocalPC-EXP/subject-24.csv","psycho",0,58,2,"Lentiform Loewenfeld","3.3.8","['vert', 'vert', 'hori', 'hori', 'hori', 'vert', 'vert', 'hori']","no",200,"None","no",0,NA,2,"legacy",NA,1024,2,48000,-16,"experiment",24,"even","green","yes",0,"diamond",393859.501800001,614439.595,614439.642700003,NA,659704.925400001,NA,NA,77606.0724000017,1429.95100000189,582828.455000003,77606.0940000025,664660.548900003,667620.5974,NA,NA,NA,NA,1430.02820000038,660904.6199,582322.1223,NA,664660.563200003,661279.713300002,664660.501300001,"New experiment",19,"[0]","dist_present",56,13,"yes","yes",1680,-32.3224092290861,-56.499754559825,"more toward","False","R","NR","hp","Left",NA,"Left",NA,0,-2,"first",0,"NR","ex"
"59",702.180500000366,3133.46899999666,75357.8920999895,2,32,"y",3,"['6', '6', 'space']","n","#000000","no",569081.046300002,2,"bias","psycho","psycho","psycho",0,"uniform",1,0,1,1,NA,1,0,NA,0,0,1,0,58,58,NA,NA,NA,NA,0,1,1,NA,58,1,58,73.2296414732588,"Thu Oct  7 15:29:32 2021","The main experiment item","yes","red","no","None","circle",NA,"pinging_target_expectations 4.0.osexp","C:\Users\etp-cp-ping\Desktop\LocalPC-EXP",75,"no","mono","no",18,"no","white","no","yes",1050,NA,0,"psycho",2,1,2,"C:/Users/etp-cp-ping/Desktop/LocalPC-EXP/subject-24.csv","psycho",0,59,3,"Lentiform Loewenfeld","3.3.8","['vert', 'vert', 'hori', 'hori', 'hori', 'hori', 'vert', 'vert']","no",200,"None","no",0,NA,2,"legacy",NA,1024,2,48000,-16,"experiment",24,"even","green","no",7,"diamond",393859.501800001,614439.595,614439.642700003,NA,659704.925400001,NA,NA,77606.0724000017,1429.95100000189,582828.455000003,77606.0940000025,667651.208900003,670068.545300001,NA,NA,NA,NA,1430.02820000038,660904.6199,582322.1223,NA,667651.223600002,661279.713300002,667651.158600001,"New experiment",19,"[0, 73.33006278403764, 73.31151463932004, 74.13265783885089, 74.12186492928986, 74.91928408091906, 73.8067625508824, 73.60822538770512, 74.61716178279742, 74.90106211012794, 75.00426641511068, 76.22894304536332, 75.91685580529506, 73.65324724734349, 73.41456265792674]","dist_absent",56,89,"yes","yes",1680,-48.684346729086,-49.559254559825,"more toward","False","NR","NR","hp",NA,"Right",NA,NA,1,NA,"first",0,"R","in"
"60",1303.17750000174,4436.6464999984,76661.0695999912,3,33,"y",3,"['6', '6', 'space']","n","#000000","no",569081.046300002,2,"bias","psycho","psycho","psycho",0,"uniform",1,0,1,1,NA,1,0,NA,0,0,1,0,59,59,NA,NA,NA,NA,0,1,1,NA,59,1,59,73.2296414732588,"Thu Oct  7 15:29:32 2021","The main experiment item","yes","green","no","6","diamond",NA,"pinging_target_expectations 4.0.osexp","C:\Users\etp-cp-ping\Desktop\LocalPC-EXP",75,"no","mono","no",18,"no","white","no","yes",1050,NA,0,"psycho",3,1,3,"C:/Users/etp-cp-ping/Desktop/LocalPC-EXP/subject-24.csv","psycho",0,60,4,"Lentiform Loewenfeld","3.3.8","['hori', 'hori', 'vert', 'vert', 'vert', 'hori', 'hori', 'vert']","yes",100,"circles","no",0,NA,2,"legacy",NA,1024,2,48000,-16,"experiment",24,"even","red","no",1,"circle",393859.501800001,614439.595,614439.642700003,NA,659704.925400001,NA,NA,77606.0724000017,1429.95100000189,582828.455000003,77606.0940000025,670100.541900003,673492.6777,NA,NA,NA,NA,1430.02820000038,660904.6199,582322.1223,NA,670100.556400001,661279.713300002,670100.491600002,"New experiment",19,"[0, 74.03383615945462, 74.4084058545568, 73.93416568618954, 73.42834597202999, 73.33356082025965, 73.27079331378955, 73.7862510879189, 73.38188772805854, 74.44045376827616, 74.53489500717912, 74.63044213367057, 75.35760049033402, 76.04644149892245, 76.23452639806628, 75.172947209672, 75.74465579075608, 74.6282939364131, 74.82044926145348, 76.08955472425502, 75.79979632106205, 75.42444642913443, 73.71764859155056, 73.87179241000814, 74.19394669428476, 75.62467694275105, 76.08443837405558, 73.71629196900984, 73.91380453263805, 73.8303447583007, 73.57208279767323, 73.25476756962841, 73.50435015825695, 74.63041314152035, 74.25051805309168, 74.03087368652146, 73.87773842217717]","dist_present",56,27,"yes","yes",1680,-55.148534229086,-56.6096920598251,"more toward","False","NR","NR","lp",NA,NA,NA,NA,-1,2,"first",7,"NR","in"
"61",1165.11819999863,5601.76469999703,77826.1877999898,4,34,"y",3,"['6', '6', 'space']","n","#000000","no",569081.046300002,2,"bias","psycho","psycho","psycho",0,"uniform",1,0,1,1,NA,1,0,NA,0,0,1,0,60,60,NA,NA,NA,NA,0,1,1,NA,60,1,60,73.2296414732588,"Thu Oct  7 15:29:32 2021","The main experiment item","yes","green","no","2","diamond",NA,"pinging_target_expectations 4.0.osexp","C:\Users\etp-cp-ping\Desktop\LocalPC-EXP",75,"no","mono","no",18,"no","white","no","yes",1050,NA,0,"psycho",4,1,4,"C:/Users/etp-cp-ping/Desktop/LocalPC-EXP/subject-24.csv","psycho",0,61,5,"Lentiform Loewenfeld","3.3.8","['hori', 'hori', 'vert', 'vert', 'hori', 'vert', 'vert', 'hori']","no",200,"None","no",0,NA,2,"legacy",NA,1024,2,48000,-16,"experiment",24,"even","red","no",7,"circle",393859.501800001,614439.595,614439.642700003,NA,659704.925400001,NA,NA,77606.0724000017,1429.95100000189,582828.455000003,77606.0940000025,673523.486000002,676420.6533,NA,NA,NA,NA,1430.02820000038,660904.6199,582322.1223,NA,673523.500499999,661279.713300002,673523.438,"New experiment",19,"[0]","dist_present",56,83,"yes","yes",1680,-47.457284229086,-60.4816920598251,"more toward","False","NR","NR","lp",NA,NA,NA,NA,1,-2,"first",1,"NR","in"
"62",1050.93510000012,6652.69979999715,78877.1228999899,5,35,"y",3,"['6', '6', 'space']","n","#000000","no",569081.046300002,2,"bias","psycho","psycho","psycho",0,"uniform",1,0,1,1,NA,1,0,NA,0,0,1,0,61,61,NA,NA,NA,NA,0,1,1,NA,61,1,61,73.2296414732588,"Thu Oct  7 15:29:32 2021","The main experiment item","yes","red","no","2","circle",NA,"pinging_target_expectations 4.0.osexp","C:\Users\etp-cp-ping\Desktop\LocalPC-EXP",75,"no","mono","no",18,"no","white","no","yes",1050,NA,0,"psycho",5,1,5,"C:/Users/etp-cp-ping/Desktop/LocalPC-EXP/subject-24.csv","psycho",0,62,6,"Lentiform Loewenfeld","3.3.8","['vert', 'vert', 'vert', 'hori', 'hori', 'hori', 'hori', 'vert']","no",200,"None","no",0,NA,2,"legacy",NA,1024,2,48000,-16,"experiment",24,"even","green","yes",0,"diamond",393859.501800001,614439.595,614439.642700003,NA,659704.925400001,NA,NA,77606.0724000017,1429.95100000189,582828.455000003,77606.0940000025,676451.2392,679476.660200002,NA,NA,NA,NA,1430.02820000038,660904.6199,582322.1223,NA,676451.2541,661279.713300002,676451.188900002,"New experiment",19,"[0]","dist_present",56,13,"yes","yes",1680,-32.510409229086,-22.803379559825,"more toward","False","NR","R","lp","Left",NA,"Left",NA,0,-2,"first",7,"NR","ex"
"63",663.758000002359,7316.45779999951,79540.8808999923,6,36,"y",3,"['6', '6', 'space']","n","#000000","no",569081.046300002,2,"bias","psycho","psycho","psycho",0,"uniform",1,0,1,1,NA,1,0,NA,0,0,1,0,62,62,NA,NA,NA,NA,0,1,1,NA,62,1,62,73.2296414732588,"Thu Oct  7 15:29:32 2021","The main experiment item","yes","green","yes","0","circle",NA,"pinging_target_expectations 4.0.osexp","C:\Users\etp-cp-ping\Desktop\LocalPC-EXP",75,"no","mono","no",18,"no","white","no","yes",1050,NA,0,"psycho",6,1,6,"C:/Users/etp-cp-ping/Desktop/LocalPC-EXP/subject-24.csv","psycho",0,63,7,"Lentiform Loewenfeld","3.3.8","['vert', 'vert', 'hori', 'hori', 'hori', 'vert', 'hori', 'vert']","yes",100,"diamond","no",0,NA,2,"legacy",NA,1024,2,48000,-16,"experiment",24,"even","red","no",5,"diamond",393859.501800001,614439.595,614439.642700003,NA,659704.925400001,NA,NA,77606.0724000017,1429.95100000189,582828.455000003,77606.0940000025,679507.4169,681956.5668,NA,NA,NA,NA,1430.02820000038,660904.6199,582322.1223,NA,679507.431300001,661279.713300002,679507.367600003,"New experiment",19,"[0]","dist_present",56,61,"yes","yes",1680,-20.7031592290861,-25.266629559825,"more toward","False","NR","NR","hp",NA,"Right",NA,NA,3,0,"first",0,"NR","in"
"64",700.166700000409,8016.62449999992,80241.0475999927,7,37,"y",3,"['6', '6', 'space']","n","#000000","no",569081.046300002,2,"bias","psycho","psycho","psycho",0,"uniform",1,0,1,1,NA,1,0,NA,0,0,1,0,63,63,NA,NA,NA,NA,0,1,1,NA,63,1,63,73.2296414732588,"Thu Oct  7 15:29:32 2021","The main experiment item","yes","green","no","7","circle",NA,"pinging_target_expectations 4.0.osexp","C:\Users\etp-cp-ping\Desktop\LocalPC-EXP",75,"no","mono","no",18,"no","white","no","yes",1050,NA,0,"psycho",7,1,7,"C:/Users/etp-cp-ping/Desktop/LocalPC-EXP/subject-24.csv","psycho",0,64,8,"Lentiform Loewenfeld","3.3.8","['hori', 'vert', 'vert', 'vert', 'hori', 'vert', 'hori', 'hori']","yes",100,"circles","no",0,NA,2,"legacy",NA,1024,2,48000,-16,"experiment",24,"even","red","no",5,"diamond",393859.501800001,614439.595,614439.642700003,NA,659704.925400001,NA,NA,77606.0724000017,1429.95100000189,582828.455000003,77606.0940000025,681987.107200002,684564.713900003,NA,NA,NA,NA,1430.02820000038,660904.6199,582322.1223,NA,681987.121800001,661279.713300002,681987.057100003,"New experiment",19,"[0]","dist_present",56,68,"yes","yes",1680,-24.8995342290859,-23.642567059825,"more toward","False","R","NR","lp",NA,NA,NA,NA,3,1,"first",5,"NR","in"
"65",833.720300001092,8850.34480000101,81074.7678999938,8,38,"y",3,"['6', '6', 'space']","n","#000000","no",569081.046300002,2,"bias","psycho","psycho","psycho",0,"uniform",1,0,1,1,NA,1,0,NA,0,0,1,0,64,64,NA,NA,NA,NA,0,1,1,NA,64,1,64,73.2296414732588,"Thu Oct  7 15:29:32 2021","The main experiment item","yes","red","no","1","circle",NA,"pinging_target_expectations 4.0.osexp","C:\Users\etp-cp-ping\Desktop\LocalPC-EXP",75,"no","mono","no",18,"no","white","no","yes",1050,NA,0,"psycho",8,1,8,"C:/Users/etp-cp-ping/Desktop/LocalPC-EXP/subject-24.csv","psycho",0,65,9,"Lentiform Loewenfeld","3.3.8","['hori', 'vert', 'hori', 'hori', 'hori', 'vert', 'vert', 'vert']","yes",100,"diamond","no",0,NA,2,"legacy",NA,1024,2,48000,-16,"experiment",24,"even","green","no",4,"diamond",393859.501800001,614439.595,614439.642700003,NA,659704.925400001,NA,NA,77606.0724000017,1429.95100000189,582828.455000003,77606.0940000025,684595.289100002,687348.688400001,NA,NA,NA,NA,1430.02820000038,660904.6199,582322.1223,NA,684595.303800001,661279.713300002,684595.238500002,"New experiment",19,"[0]","dist_present",56,52,"yes","yes",1680,-36.0405342290859,-14.4826295598251,"more toward","False","NR","NR","lp","Left",NA,NA,NA,4,-1,"first",5,"R","in"
"66",752.021400003345,9602.36620000436,81826.7892999972,9,39,"y",3,"['6', '6', 'space']","n","#000000","no",569081.046300002,2,"bias","psycho","psycho","psycho",0,"uniform",1,0,1,1,NA,1,0,NA,0,0,1,0,65,65,NA,NA,NA,NA,0,1,1,NA,65,1,65,73.2296414732588,"Thu Oct  7 15:29:32 2021","The main experiment item","yes","green","no","4","circle",NA,"pinging_target_expectations 4.0.osexp","C:\Users\etp-cp-ping\Desktop\LocalPC-EXP",75,"no","mono","no",18,"no","white","no","yes",1050,NA,0,"psycho",9,1,9,"C:/Users/etp-cp-ping/Desktop/LocalPC-EXP/subject-24.csv","psycho",0,66,10,"Lentiform Loewenfeld","3.3.8","['hori', 'vert', 'vert', 'hori', 'vert', 'hori', 'vert', 'hori']","no",200,"None","no",0,NA,2,"legacy",NA,1024,2,48000,-16,"experiment",24,"even","red","no",1,"diamond",393859.501800001,614439.595,614439.642700003,NA,659704.925400001,NA,NA,77606.0724000017,1429.95100000189,582828.455000003,77606.0940000025,687380.1872,689988.6042,NA,NA,NA,NA,1430.02820000038,660904.6199,582322.1223,NA,687380.202,661279.713300002,687380.137600001,"New experiment",19,"[0]","dist_present",56,25,"yes","yes",1680,-16.5709717290861,-5.89412955982502,"more away","False","NR","NR","lp",NA,"Left",NA,NA,-1,4,"first",4,"NR","in"
"67",965.969599997974,10568.3358000023,82792.7588999951,10,40,"y",3,"['6', '6', 'space']","n","#000000","no",569081.046300002,2,"bias","psycho","psycho","psycho",0,"uniform",1,0,1,1,NA,1,0,NA,0,0,1,0,66,66,NA,NA,NA,NA,0,1,1,NA,66,1,66,73.2296414732588,"Thu Oct  7 15:29:32 2021","The main experiment item","yes","green","no","None","circle",NA,"pinging_target_expectations 4.0.osexp","C:\Users\etp-cp-ping\Desktop\LocalPC-EXP",75,"no","mono","no",18,"no","white","no","yes",1050,NA,0,"psycho",10,1,10,"C:/Users/etp-cp-ping/Desktop/LocalPC-EXP/subject-24.csv","psycho",0,67,11,"Lentiform Loewenfeld","3.3.8","['hori', 'vert', 'hori', 'hori', 'hori', 'vert', 'vert', 'vert']","yes",100,"circles","no",0,NA,2,"legacy",NA,1024,2,48000,-16,"experiment",24,"even","red","no",5,"diamond",393859.501800001,614439.595,614439.642700003,NA,659704.925400001,NA,NA,77606.0724000017,1429.95100000189,582828.455000003,77606.0940000025,690019.806200002,693044.6128,NA,NA,NA,NA,1430.02820000038,660904.6199,582322.1223,NA,690019.821500002,661279.713300002,690019.7567,"New experiment",19,"[0]","dist_absent",56,69,"yes","yes",1680,-50.6980342290859,-14.082129559825,"more toward","False","NR","NR","lp",NA,"Right",NA,NA,3,NA,"first",1,"NR","in"
"68",1116.21440000087,11684.5502000032,83908.973299996,11,41,"y",3,"['6', '6', 'space']","n","#000000","no",569081.046300002,2,"bias","psycho","psycho","psycho",0,"uniform",1,0,1,1,NA,1,0,NA,0,0,1,0,67,67,NA,NA,NA,NA,0,1,1,NA,67,1,67,73.2296414732588,"Thu Oct  7 15:29:32 2021","The main experiment item","yes","green","no","1","circle",NA,"pinging_target_expectations 4.0.osexp","C:\Users\etp-cp-ping\Desktop\LocalPC-EXP",75,"no","mono","no",18,"no","white","no","yes",1050,NA,0,"psycho",11,1,11,"C:/Users/etp-cp-ping/Desktop/LocalPC-EXP/subject-24.csv","psycho",0,68,12,"Lentiform Loewenfeld","3.3.8","['vert', 'vert', 'hori', 'hori', 'vert', 'hori', 'vert', 'hori']","yes",100,"circles","no",0,NA,2,"legacy",NA,1024,2,48000,-16,"experiment",24,"even","red","no",3,"diamond",393859.501800001,614439.595,614439.642700003,NA,659704.925400001,NA,NA,77606.0724000017,1429.95100000189,582828.455000003,77606.0940000025,693075.106100001,696084.716500001,NA,NA,NA,NA,1430.02820000038,660904.6199,582322.1223,NA,693075.120900001,661279.713300002,693075.055600002,"New experiment",19,"[0]","dist_present",56,42,"yes","yes",1680,-8.42697172908598,1.25380794017495,"more away","False","NR","NR","lp",NA,NA,NA,NA,-3,-1,"first",5,"NR","in"
"69",798.657999999705,12483.2082000029,84707.6312999957,12,42,"y",3,"['6', '6', 'space']","n","#000000","no",569081.046300002,2,"bias","psycho","psycho","psycho",0,"uniform",1,0,1,1,NA,1,0,NA,0,0,1,0,68,68,NA,NA,NA,NA,0,1,1,NA,68,1,68,73.2296414732588,"Thu Oct  7 15:29:32 2021","The main experiment item","yes","red","no","None","diamond",NA,"pinging_target_expectations 4.0.osexp","C:\Users\etp-cp-ping\Desktop\LocalPC-EXP",75,"no","mono","no",18,"no","white","no","yes",1050,NA,0,"psycho",12,1,12,"C:/Users/etp-cp-ping/Desktop/LocalPC-EXP/subject-24.csv","psycho",0,69,13,"Lentiform Loewenfeld","3.3.8","['vert', 'vert', 'hori', 'hori', 'hori', 'vert', 'vert', 'hori']","yes",100,"circles","no",0,NA,2,"legacy",NA,1024,2,48000,-16,"experiment",24,"even","green","no",2,"circle",393859.501800001,614439.595,614439.642700003,NA,659704.925400001,NA,NA,77606.0724000017,1429.95100000189,582828.455000003,77606.0940000025,696116.309600002,699012.7675,NA,NA,NA,NA,1430.02820000038,660904.6199,582322.1223,NA,696116.3242,661279.713300002,696116.259800001,"New experiment",19,"[0]","dist_absent",56,39,"yes","yes",1680,-7.09915922908599,2.31149544017498,"more away","False","NR","NR","lp",NA,"Left",NA,"Left",-2,NA,"first",3,"NR","in"
"70",913.202399999136,13396.410600002,85620.8336999948,13,43,"y",3,"['6', '6', 'space']","n","#000000","no",569081.046300002,2,"bias","psycho","psycho","psycho",0,"uniform",1,0,1,1,NA,1,0,NA,0,0,1,0,69,69,NA,NA,NA,NA,0,1,1,NA,69,1,69,73.2296414732588,"Thu Oct  7 15:29:32 2021","The main experiment item","yes","green","no","None","circle",NA,"pinging_target_expectations 4.0.osexp","C:\Users\etp-cp-ping\Desktop\LocalPC-EXP",75,"no","mono","no",18,"no","white","no","yes",1050,NA,0,"psycho",13,1,13,"C:/Users/etp-cp-ping/Desktop/LocalPC-EXP/subject-24.csv","psycho",0,70,14,"Lentiform Loewenfeld","3.3.8","['vert', 'vert', 'hori', 'hori', 'hori', 'vert', 'vert', 'hori']","no",200,"None","no",0,NA,2,"legacy",NA,1024,2,48000,-16,"experiment",24,"even","red","no",6,"diamond",393859.501800001,614439.595,614439.642700003,NA,659704.925400001,NA,NA,77606.0724000017,1429.95100000189,582828.455000003,77606.0940000025,699043.3395,701796.706100002,NA,NA,NA,NA,1430.02820000038,660904.6199,582322.1223,NA,699043.3539,661279.713300002,699043.2888,"New experiment",19,"[0]","dist_absent",56,79,"yes","yes",1680,-19.0454717290861,-14.6928170598251,"more toward","False","NR","R","lp",NA,"Right",NA,"Right",2,NA,"first",2,"NR","in"
"71",1658.03500000038,15054.4456000024,87278.8686999952,14,44,"y",3,"['6', '6', 'space']","n","#000000","no",569081.046300002,2,"bias","psycho","psycho","psycho",0,"uniform",1,0,1,1,NA,1,0,NA,0,0,1,0,70,70,NA,NA,NA,NA,0,1,1,NA,70,1,70,73.2296414732588,"Thu Oct  7 15:29:32 2021","The main experiment item","yes","green","no","7","circle",NA,"pinging_target_expectations 4.0.osexp","C:\Users\etp-cp-ping\Desktop\LocalPC-EXP",75,"no","mono","no",18,"no","white","no","yes",1050,NA,0,"psycho",14,1,14,"C:/Users/etp-cp-ping/Desktop/LocalPC-EXP/subject-24.csv","psycho",0,71,15,"Lentiform Loewenfeld","3.3.8","['vert', 'hori', 'vert', 'hori', 'vert', 'hori', 'vert', 'hori']","no",200,"None","no",0,NA,2,"legacy",NA,1024,2,48000,-16,"experiment",24,"even","red","yes",0,"diamond",393859.501800001,614439.595,614439.642700003,NA,659704.925400001,NA,NA,77606.0724000017,1429.95100000189,582828.455000003,77606.0940000025,701827.230400002,705172.654500002,NA,NA,NA,NA,1430.02820000038,660904.6199,582322.1223,NA,701827.2454,661279.713300002,701827.181000001,"New experiment",19,"[0]","dist_present",56,18,"yes","yes",1680,-9.13640922908605,-0.159629559825054,"more away","False","NR","NR","lp","Right",NA,NA,NA,0,1,"first",6,"NR","ex"
"72",1596.2326000008,16650.6782000032,88875.101299996,14,44,"y",3,"['6', '6', 'space']","n","#000000","no",569081.046300002,2,"bias","psycho","psycho","psycho",0,"uniform",0,0,1,1,NA,1,0,NA,0,0,1,0,71,71,NA,NA,NA,NA,0,1,1,NA,71,1,71,73.2296414732588,"Thu Oct  7 15:29:32 2021","The main experiment item","yes","red","no","2","diamond",NA,"pinging_target_expectations 4.0.osexp","C:\Users\etp-cp-ping\Desktop\LocalPC-EXP",75,"no","mono","no",18,"no","white","no","yes",1050,NA,0,"psycho",15,1,15,"C:/Users/etp-cp-ping/Desktop/LocalPC-EXP/subject-24.csv","psycho",0,72,16,"Lentiform Loewenfeld","3.3.8","['hori', 'vert', 'hori', 'vert', 'vert', 'hori', 'hori', 'vert']","yes",100,"diamond","no",0,NA,2,"legacy",NA,1024,2,48000,-16,"experiment",24,"even","green","no",4,"circle",393859.501800001,614439.595,614439.642700003,NA,659704.925400001,NA,NA,77606.0724000017,1429.95100000189,582828.455000003,77606.0940000025,705203.201100001,708644.724100002,NA,NA,NA,NA,1430.02820000038,660904.6199,582322.1223,NA,705203.215600002,661279.713300002,705203.1503,"New experiment",19,"[0, 73.40744614420807, 73.50988462246269]","dist_present",56,53,"yes","yes",1680,6.48059077091393,-20.0420670598251,"more toward","False","NR","NR","hp","Left",NA,"Left",NA,4,-2,"first",0,"NR","in"
"73",1859.82899999723,18510.5072000005,90734.9302999933,15,45,"y",3,"['6', '6', 'space']","n","#000000","no",569081.046300002,2,"bias","psycho","psycho","psycho",0,"uniform",1,0,1,1,NA,1,0,NA,0,0,1,0,72,72,NA,NA,NA,NA,0,1,1,NA,72,1,72,73.2296414732588,"Thu Oct  7 15:29:32 2021","The main experiment item","yes","red","yes","0","diamond",NA,"pinging_target_expectations 4.0.osexp","C:\Users\etp-cp-ping\Desktop\LocalPC-EXP",75,"no","mono","no",18,"no","white","no","yes",1050,NA,0,"psycho",16,1,16,"C:/Users/etp-cp-ping/Desktop/LocalPC-EXP/subject-24.csv","psycho",0,73,17,"Lentiform Loewenfeld","3.3.8","['hori', 'hori', 'hori', 'vert', 'hori', 'vert', 'vert', 'vert']","no",200,"None","no",0,NA,2,"legacy",NA,1024,2,48000,-16,"experiment",24,"even","green","no",3,"circle",393859.501800001,614439.595,614439.642700003,NA,659704.925400001,NA,NA,77606.0724000017,1429.95100000189,582828.455000003,77606.0940000025,708676.925900003,712357.028000002,NA,NA,NA,NA,1430.02820000038,660904.6199,582322.1223,NA,708676.940600002,661279.713300002,708676.875600002,"New experiment",19,"[0]","dist_present",56,41,"yes","yes",1680,-26.6510967290861,-27.3557545598251,"more toward","False","NR","NR","lp",NA,"Left",NA,NA,-3,0,"first",4,"NR","in"
"74",1734.20389999961,20244.7111000001,92469.1341999929,16,46,"y",3,"['6', '6', 'space']","n","#000000","no",569081.046300002,2,"bias","psycho","psycho","psycho",0,"uniform",1,0,1,1,NA,1,0,NA,0,0,1,0,73,73,NA,NA,NA,NA,0,1,1,NA,73,1,73,73.2296414732588,"Thu Oct  7 15:29:32 2021","The main experiment item","yes","red","no","1","circle",NA,"pinging_target_expectations 4.0.osexp","C:\Users\etp-cp-ping\Desktop\LocalPC-EXP",75,"no","mono","no",18,"no","white","no","yes",1050,NA,0,"psycho",17,1,17,"C:/Users/etp-cp-ping/Desktop/LocalPC-EXP/subject-24.csv","psycho",0,74,18,"Lentiform Loewenfeld","3.3.8","['hori', 'vert', 'vert', 'vert', 'vert', 'hori', 'hori', 'hori']","no",200,"None","no",0,NA,2,"legacy",NA,1024,2,48000,-16,"experiment",24,"even","green","no",3,"diamond",393859.501800001,614439.595,614439.642700003,NA,659704.925400001,NA,NA,77606.0724000017,1429.95100000189,582828.455000003,77606.0940000025,712388.9987,715940.720500002,NA,NA,NA,NA,1430.02820000038,660904.6199,582322.1223,NA,712389.013,661279.713300002,712388.949300002,"New experiment",19,"[0]","dist_present",56,42,"yes","yes",1680,24.759715770914,-7.85331705982506,"more away","False","R","NR","lp",NA,NA,NA,NA,-3,-1,"first",3,"NR","in"
"75",1511.3587000015,21756.0698000016,93980.4928999944,17,47,"y",3,"['6', '6', 'space']","n","#000000","no",569081.046300002,2,"bias","psycho","psycho","psycho",0,"uniform",1,0,1,1,NA,1,0,NA,0,0,1,0,74,74,NA,NA,NA,NA,0,1,1,NA,74,1,74,73.2296414732588,"Thu Oct  7 15:29:32 2021","The main experiment item","yes","green","no","5","circle",NA,"pinging_target_expectations 4.0.osexp","C:\Users\etp-cp-ping\Desktop\LocalPC-EXP",75,"no","mono","no",18,"no","white","no","yes",1050,NA,0,"psycho",18,1,18,"C:/Users/etp-cp-ping/Desktop/LocalPC-EXP/subject-24.csv","psycho",0,75,19,"Lentiform Loewenfeld","3.3.8","['vert', 'vert', 'hori', 'vert', 'vert', 'hori', 'hori', 'hori']","yes",100,"circles","no",0,NA,2,"legacy",NA,1024,2,48000,-16,"experiment",24,"even","red","no",2,"diamond",393859.501800001,614439.595,614439.642700003,NA,659704.925400001,NA,NA,77606.0724000017,1429.95100000189,582828.455000003,77606.0940000025,715971.354400001,719252.586900002,NA,NA,NA,NA,1430.02820000038,660904.6199,582322.1223,NA,715971.369800001,661279.713300002,715971.302800001,"New experiment",19,"[0, 75.35972506333368, 75.15987182671621, 75.39825260961143, 75.4978940071312, 78.84412668980048, 79.23590015602431, 78.41840303818574, 76.83547178303289, 76.66817792824173]","dist_present",56,36,"yes","yes",1680,4.18534077091399,-22.2376920598251,"more toward","False","NR","NR","lp",NA,NA,NA,NA,-2,3,"first",3,"R","in"
"76",1157.98640000133,22914.0562000029,95138.4792999957,18,48,"y",3,"['6', '6', 'space']","n","#000000","no",569081.046300002,2,"bias","psycho","psycho","psycho",0,"uniform",1,0,1,1,NA,1,0,NA,0,0,1,0,75,75,NA,NA,NA,NA,0,1,1,NA,75,1,75,73.2296414732588,"Thu Oct  7 15:29:32 2021","The main experiment item","yes","green","no","5","circle",NA,"pinging_target_expectations 4.0.osexp","C:\Users\etp-cp-ping\Desktop\LocalPC-EXP",75,"no","mono","no",18,"no","white","no","yes",1050,NA,0,"psycho",19,1,19,"C:/Users/etp-cp-ping/Desktop/LocalPC-EXP/subject-24.csv","psycho",0,76,20,"Lentiform Loewenfeld","3.3.8","['hori', 'hori', 'hori', 'hori', 'vert', 'vert', 'vert', 'vert']","yes",100,"diamond","no",0,NA,2,"legacy",NA,1024,2,48000,-16,"experiment",24,"even","red","no",2,"diamond",393859.501800001,614439.595,614439.642700003,NA,659704.925400001,NA,NA,77606.0724000017,1429.95100000189,582828.455000003,77606.0940000025,719283.0321,722052.606100002,NA,NA,NA,NA,1430.02820000038,660904.6199,582322.1223,NA,719283.046600001,661279.713300002,719282.981800003,"New experiment",19,"[0]","dist_present",56,36,"yes","yes",1680,6.32977827091403,-23.8502545598251,"more toward","False","R","R","lp",NA,NA,NA,NA,-2,3,"first",2,"NR","in"
