"","RT","RT_bl","RT_tot","acc_bl","acc_tot","background","bidi","blink_onset","block_cnt","block_type","canvas_backend","clock_backend","color_backend","compensation","coordinates","correct","count_block_loop","count_block_seq","count_block_settings","count_check_session","count_drift_correct","count_end_loop","count_end_seq","count_exp_settings","count_experiment","count_feedback","count_instructions","count_log_variables","count_logger","count_new_inline_script","count_new_pygaze_drift_correct","count_new_pygaze_start_recording","count_new_pygaze_stop_recording","count_pygaze","count_start_recording","count_stop_recording","count_test_location","count_trial","count_trial_loop","count_trial_seq","d_eye","datetime","description","disable_garbage_collection","dist_color","dist_high","dist_loc","dist_shape","empty_column","experiment_file","experiment_path","eye_threshold_length","font_bold","font_family","font_italic","font_size","font_underline","foreground","form_clicks","fullscreen","height","high_loc","high_prob_loc","keyboard_backend","live_row","live_row_block_loop","live_row_trial_loop","logfile","mouse_backend","nr_blinks","nr_trials","nr_trials_bl","opensesame_codename","opensesame_version","orient_list_trial","ping","ping_trigger","ping_type","practice","repeat_cycle","response","round_decimals","sampler_backend","session_nr","sound_buf_size","sound_channels","sound_freq","sound_sample_size","start","subject_nr","subject_parity","target_color","target_high","target_loc","target_shape","time_block_loop","time_block_seq","time_block_settings","time_check_session","time_drift_correct","time_end_loop","time_end_seq","time_exp_settings","time_experiment","time_feedback","time_instructions","time_log_variables","time_logger","time_new_inline_script","time_new_pygaze_drift_correct","time_new_pygaze_start_recording","time_new_pygaze_stop_recording","time_pygaze","time_start_recording","time_stop_recording","time_test_location","time_trial","time_trial_loop","time_trial_seq","title","total_blocks","tracker_dev","trial_type","trials_in_block","trigger","uniform_coordinates","update_blinks","width","x","y","toward","containsNaN","rept","repd","prevtar","pd","nt","pd_c","nt_c","tar_dist","dist_dist","prevHP","eegTar","repteeg","tarcounter"
"1",1443.08089999959,1443.08089999959,1443.08089999959,0,0,"#000000","no",1613.65380000007,1,"neutral","psycho","psycho","psycho",0,"uniform",0,0,0,0,NA,0,0,NA,0,0,0,0,0,0,NA,NA,NA,NA,0,0,0,NA,0,0,0,73.2296414732588,"Fri Jul  9 15:06:23 2021","The main experiment item","yes","red","no","2","diamond",NA,"pinging_target_expectations 3.1.osexp","C:\Users\etp-cp-ping\Desktop\LocalPC-EXP",75,"no","mono","no",18,"no","white","no","yes",1050,NA,100,"psycho",0,0,0,"C:/Users/etp-cp-ping/DATA/subject-5.csv","psycho",0,1,1,"Lentiform Loewenfeld","3.3.8","['hori', 'hori', 'hori', 'vert', 'vert', 'hori', 'vert', 'vert']","no",209,"None","yes",0,NA,2,"legacy",NA,1024,2,48000,-16,"experiment",5,"odd","green","no",5,"circle",278188.3145,278215.1386,278215.1775,NA,281500.3393,NA,NA,93263.6014,1618.50370000002,NA,93263.6238,356150.2418,359373.5233,NA,NA,NA,NA,1618.58399999983,355683.3527,NA,NA,356150.258,356145.8309,356150.1687,"New experiment",19,"[0]","dist_present",56,63,"yes","yes",1680,NA,NA,NA,NA,"NR","NR","lp",NA,NA,NA,NA,NA,NA,"practice",999,"NR","in"
"2",1440.2928,2883.37369999959,2883.37369999959,1,1,"#000000","no",361613.6232,1,"neutral","psycho","psycho","psycho",0,"uniform",1,0,0,0,NA,0,0,NA,0,0,0,0,1,1,NA,NA,NA,NA,0,0,0,NA,1,0,1,73.2296414732588,"Fri Jul  9 15:06:23 2021","The main experiment item","yes","red","no","None","circle",NA,"pinging_target_expectations 3.1.osexp","C:\Users\etp-cp-ping\Desktop\LocalPC-EXP",75,"no","mono","no",18,"no","white","no","yes",1050,NA,100,"psycho",1,0,1,"C:/Users/etp-cp-ping/DATA/subject-5.csv","psycho",1,2,2,"Lentiform Loewenfeld","3.3.8","['hori', 'hori', 'hori', 'hori', 'vert', 'vert', 'vert', 'vert']","yes",109,"diamond","yes",0,NA,2,"legacy",NA,1024,2,48000,-16,"experiment",5,"odd","green","no",7,"diamond",278188.3145,278215.1386,278215.1775,NA,281500.3393,NA,NA,93263.6014,1618.50370000002,NA,93263.6238,359420.3156,362909.417,NA,NA,NA,NA,1618.58399999983,355683.3527,NA,NA,359420.3298,356145.8309,359420.2659,"New experiment",19,"[0]","dist_absent",56,89,"yes","yes",1680,NA,NA,NA,NA,"NR","NR","lp",NA,"Right",NA,NA,NA,NA,"practice",5,"NR","in"
"3",1277.5175000006,4160.89120000019,4160.89120000019,2,2,"#000000","no",361613.6232,1,"neutral","psycho","psycho","psycho",0,"uniform",1,0,0,0,NA,0,0,NA,0,0,0,0,2,2,NA,NA,NA,NA,0,0,0,NA,2,0,2,73.2296414732588,"Fri Jul  9 15:06:23 2021","The main experiment item","yes","green","no","7","circle",NA,"pinging_target_expectations 3.1.osexp","C:\Users\etp-cp-ping\Desktop\LocalPC-EXP",75,"no","mono","no",18,"no","white","no","yes",1050,NA,100,"psycho",2,0,2,"C:/Users/etp-cp-ping/DATA/subject-5.csv","psycho",1,3,3,"Lentiform Loewenfeld","3.3.8","['vert', 'vert', 'vert', 'hori', 'hori', 'hori', 'vert', 'hori']","yes",109,"diamond","yes",0,NA,2,"legacy",NA,1024,2,48000,-16,"experiment",5,"odd","red","no",2,"diamond",278188.3145,278215.1386,278215.1775,NA,281500.3393,NA,NA,93263.6014,1618.50370000002,NA,93263.6238,362940.1421,366173.4404,NA,NA,NA,NA,1618.58399999983,355683.3527,NA,NA,362940.1566,356145.8309,362940.0918,"New experiment",19,"[0]","dist_present",56,38,"yes","yes",1680,NA,NA,NA,NA,"NR","NR","lp",NA,NA,NA,NA,NA,NA,"practice",7,"NR","in"
"4",1000.66610000067,5161.55730000086,5161.55730000086,3,3,"#000000","no",361613.6232,1,"neutral","psycho","psycho","psycho",0,"uniform",1,0,0,0,NA,0,0,NA,0,0,0,0,3,3,NA,NA,NA,NA,0,0,0,NA,3,0,3,73.2296414732588,"Fri Jul  9 15:06:23 2021","The main experiment item","yes","green","no","3","circle",NA,"pinging_target_expectations 3.1.osexp","C:\Users\etp-cp-ping\Desktop\LocalPC-EXP",75,"no","mono","no",18,"no","white","no","yes",1050,NA,100,"psycho",3,0,3,"C:/Users/etp-cp-ping/DATA/subject-5.csv","psycho",1,4,4,"Lentiform Loewenfeld","3.3.8","['vert', 'hori', 'hori', 'hori', 'vert', 'vert', 'hori', 'vert']","yes",109,"diamond","yes",0,NA,2,"legacy",NA,1024,2,48000,-16,"experiment",5,"odd","red","no",5,"diamond",278188.3145,278215.1386,278215.1775,NA,281500.3393,NA,NA,93263.6014,1618.50370000002,NA,93263.6238,366204.1794,369085.4449,NA,NA,NA,NA,1618.58399999983,355683.3527,NA,NA,366204.1939,356145.8309,366204.1294,"New experiment",19,"[0, 74.97630330397499, 80.39825677452907, 83.5600358707849, 86.5464685910759, 85.22970319747483, 84.1218202640168, 82.02736763134297, 79.53397250988957, 79.2268219044673, 83.73845531729182, 83.64957642297045, 80.18883962248113, 90.05804002825741, 124.85308369169088, 179.06427510573351, 245.3871266614308, 317.6818908659744, 394.1925799565153, 475.8070914318498, 561.4925067828976, 642.5539111015321, 721.6400489807721, 798.0670481940014, 870.7480628124329, 936.9999235985728, 994.160521006705, 1043.1744829918591, 1108.7646110402854, 1150.8317995707807, 1180.870967692436, 1210.1916791809838, 1229.1097452939518, 1252.9348976460265, 1269.0632239151626, 1276.1095724911004, 1275.7030431804587, 1272.6652508458185, 1253.5942986120733, 1226.7324484173394, 1178.8270032489363, 1128.598622694296, 1071.1570184336417, 1004.3429818981597, 931.0619106508681, 855.781309962399, 775.7996927691983, 695.6847096173044, 620.9178646791678, 547.1178809536209, 476.6751813147455, 413.07915706314765, 353.80065680529844, 302.5797778526059, 254.6299488945164, 206.29348026537338, 162.3399084076899, 120.60146799285837, 84.30212282379608]","dist_present",56,64,"yes","yes",1680,NA,NA,NA,NA,"NR","NR","lp",NA,NA,NA,NA,NA,NA,"practice",2,"NR","in"
"5",1432.71650000045,6594.27380000131,6594.27380000131,4,4,"#000000","no",370876.4558,1,"neutral","psycho","psycho","psycho",0,"uniform",1,0,0,0,NA,0,0,NA,0,0,0,0,4,4,NA,NA,NA,NA,0,0,0,NA,4,0,4,73.2296414732588,"Fri Jul  9 15:06:23 2021","The main experiment item","yes","red","no","None","diamond",NA,"pinging_target_expectations 3.1.osexp","C:\Users\etp-cp-ping\Desktop\LocalPC-EXP",75,"no","mono","no",18,"no","white","no","yes",1050,NA,100,"psycho",4,0,4,"C:/Users/etp-cp-ping/DATA/subject-5.csv","psycho",2,5,5,"Lentiform Loewenfeld","3.3.8","['vert', 'vert', 'hori', 'vert', 'vert', 'hori', 'hori', 'hori']","no",209,"None","yes",0,NA,2,"legacy",NA,1024,2,48000,-16,"experiment",5,"odd","green","no",3,"circle",278188.3145,278215.1386,278215.1775,NA,281500.3393,NA,NA,93263.6014,1618.50370000002,NA,93263.6238,369115.8531,372509.3934,NA,NA,NA,NA,1618.58399999983,355683.3527,NA,NA,369115.8681,356145.8309,369115.8029,"New experiment",19,"[0, 75.18840276695121, 87.2823607707137, 102.4643027706989, 116.26054459065749, 127.20850701825368, 133.453856277634, 132.07003965145122, 128.13373286264098, 120.98350837744971, 115.445804944982, 106.66882337805889, 100.29578575949255, 95.61508744068483, 92.4455342973566, 89.95110678212286, 89.44923781128693, 89.66157726418126, 90.2295787686384, 94.17459812306804, 96.4359289557312, 98.26415857697347, 98.46218477697634, 98.81380133972031, 99.39944667854041, 98.97541823871038, 98.40999239916749, 98.6392368885489, 98.7567980625889, 98.45210693337027, 98.79862026224501, 98.44387962958197, 99.28997483524401, 99.012019151837, 98.59054143699886, 99.02767245628705, 99.68675465655036, 97.53160225024808, 93.12814598556001, 85.94755938284393, 77.98031597894483, 164.95820222543014, 310.9943591464298, 487.2465743905973, 682.4342231764208, 892.0219002591768, 1109.1759329010695, 1303.5943640775263, 1412.4369322894795]","dist_absent",56,49,"yes","no",1680,NA,NA,NA,NA,"NR","NR","lp",NA,"Left",NA,NA,NA,NA,"practice",5,"NR","in"
"6",1100.52780000021,7694.80160000152,7694.80160000152,5,5,"#000000","no",370876.4558,1,"neutral","psycho","psycho","psycho",0,"uniform",1,0,0,0,NA,0,0,NA,0,0,0,0,5,5,NA,NA,NA,NA,0,0,0,NA,5,0,5,73.2296414732588,"Fri Jul  9 15:06:23 2021","The main experiment item","yes","red","no","None","diamond",NA,"pinging_target_expectations 3.1.osexp","C:\Users\etp-cp-ping\Desktop\LocalPC-EXP",75,"no","mono","no",18,"no","white","no","yes",1050,NA,100,"psycho",5,0,5,"C:/Users/etp-cp-ping/DATA/subject-5.csv","psycho",2,6,6,"Lentiform Loewenfeld","3.3.8","['hori', 'vert', 'hori', 'hori', 'vert', 'vert', 'hori', 'vert']","yes",109,"diamond","yes",0,NA,2,"legacy",NA,1024,2,48000,-16,"experiment",5,"odd","green","no",0,"circle",278188.3145,278215.1386,278215.1775,NA,281500.3393,NA,NA,93263.6014,1618.50370000002,NA,93263.6238,372539.7595,375421.4519,NA,NA,NA,NA,1618.58399999983,355683.3527,NA,NA,372539.7737,356145.8309,372539.7094,"New experiment",19,"[0, 77.52245448711831, 77.66207960387504, 73.9091559946692]","dist_absent",56,19,"yes","yes",1680,NA,NA,NA,NA,"NR","R","lp",NA,NA,NA,NA,NA,NA,"practice",3,"NR","in"
"7",1205.34659999976,8900.14820000128,8900.14820000128,6,6,"#000000","no",375922.4656,1,"neutral","psycho","psycho","psycho",0,"uniform",1,0,0,0,NA,0,0,NA,0,0,0,0,6,6,NA,NA,NA,NA,0,0,0,NA,6,0,6,73.2296414732588,"Fri Jul  9 15:06:23 2021","The main experiment item","yes","red","no","7","diamond",NA,"pinging_target_expectations 3.1.osexp","C:\Users\etp-cp-ping\Desktop\LocalPC-EXP",75,"no","mono","no",18,"no","white","no","yes",1050,NA,100,"psycho",6,0,6,"C:/Users/etp-cp-ping/DATA/subject-5.csv","psycho",3,7,7,"Lentiform Loewenfeld","3.3.8","['vert', 'vert', 'vert', 'hori', 'hori', 'hori', 'hori', 'vert']","no",209,"None","yes",0,NA,2,"legacy",NA,1024,2,48000,-16,"experiment",5,"odd","green","no",0,"circle",278188.3145,278215.1386,278215.1775,NA,281500.3393,NA,NA,93263.6014,1618.50370000002,NA,93263.6238,375451.7514,378477.4101,NA,NA,NA,NA,1618.58399999983,355683.3527,NA,NA,375451.7656,356145.8309,375451.7017,"New experiment",19,"[0, 95.32583403144007, 141.4993172241587, 195.71728245323573, 257.7770085513749, 321.84321864108716, 382.7868469465909, 442.56968855319764, 506.5656948011946, 569.3984754568103, 632.1932180444593, 691.0222708838152, 750.2449968398348, 805.2391024710859, 864.0958991623683, 918.5196441539928, 970.0975466415736, 1026.7204231434218, 1082.5399995372666, 1118.324531258416, 1171.5806630360541, 1220.0122188469036, 1247.6891543974323, 1255.259076391127]","dist_present",56,18,"yes","no",1680,NA,NA,NA,NA,"R","NR","lp","Right",NA,NA,NA,NA,NA,"practice",0,"NR","in"
"8",1011.0625999996,9911.21080000087,9911.21080000087,7,7,"#000000","no",375922.4656,1,"neutral","psycho","psycho","psycho",0,"uniform",1,0,0,0,NA,0,0,NA,0,0,0,0,7,7,NA,NA,NA,NA,0,0,0,NA,7,0,7,73.2296414732588,"Fri Jul  9 15:06:23 2021","The main experiment item","yes","red","no","1","circle",NA,"pinging_target_expectations 3.1.osexp","C:\Users\etp-cp-ping\Desktop\LocalPC-EXP",75,"no","mono","no",18,"no","white","no","yes",1050,NA,100,"psycho",7,0,7,"C:/Users/etp-cp-ping/DATA/subject-5.csv","psycho",3,8,8,"Lentiform Loewenfeld","3.3.8","['hori', 'vert', 'hori', 'vert', 'vert', 'vert', 'hori', 'hori']","no",209,"None","yes",0,NA,2,"legacy",NA,1024,2,48000,-16,"experiment",5,"odd","green","no",3,"diamond",278188.3145,278215.1386,278215.1775,NA,281500.3393,NA,NA,93263.6014,1618.50370000002,NA,93263.6238,378507.9918,381597.5279,NA,NA,NA,NA,1618.58399999983,355683.3527,NA,NA,378508.0056,356145.8309,378507.9421,"New experiment",19,"[0]","dist_present",56,42,"yes","yes",1680,NA,NA,NA,NA,"NR","NR","lp",NA,NA,NA,NA,NA,NA,"practice",0,"R","in"
"9",2000.27909999975,11911.4899000006,11911.4899000006,7,7,"#000000","no",382262.612,1,"neutral","psycho","psycho","psycho",0,"uniform",0,0,0,0,NA,0,0,NA,0,0,0,0,8,8,NA,NA,NA,NA,0,0,0,NA,8,0,8,73.2296414732588,"Fri Jul  9 15:06:23 2021","The main experiment item","yes","green","no","5","circle",NA,"pinging_target_expectations 3.1.osexp","C:\Users\etp-cp-ping\Desktop\LocalPC-EXP",75,"no","mono","no",18,"no","white","no","yes",1050,NA,100,"psycho",8,0,8,"C:/Users/etp-cp-ping/DATA/subject-5.csv","psycho",4,9,9,"Lentiform Loewenfeld","3.3.8","['hori', 'hori', 'hori', 'vert', 'vert', 'vert', 'hori', 'vert']","yes",109,"diamond","yes",0,NA,2,"legacy",NA,1024,2,48000,-16,"experiment",5,"odd","red","no",7,"diamond",278188.3145,278215.1386,278215.1775,NA,281500.3393,NA,NA,93263.6014,1618.50370000002,NA,93263.6238,381628.0966,385508.8082,NA,NA,NA,NA,1618.58399999983,355683.3527,NA,NA,381628.1115,356145.8309,381628.0443,"New experiment",19,"[0]","dist_present",56,86,"yes","yes",1680,NA,NA,NA,NA,"NR","NR","lp",NA,NA,NA,NA,NA,NA,"practice",3,"NR","in"
"10",1449.20269999962,13360.6926000002,13360.6926000002,8,8,"#000000","no",386190.6635,1,"neutral","psycho","psycho","psycho",0,"uniform",1,0,0,0,NA,0,0,NA,0,0,0,0,9,9,NA,NA,NA,NA,0,0,0,NA,9,0,9,73.2296414732588,"Fri Jul  9 15:06:23 2021","The main experiment item","yes","red","no","4","circle",NA,"pinging_target_expectations 3.1.osexp","C:\Users\etp-cp-ping\Desktop\LocalPC-EXP",75,"no","mono","no",18,"no","white","no","yes",1050,NA,100,"psycho",9,0,9,"C:/Users/etp-cp-ping/DATA/subject-5.csv","psycho",5,10,10,"Lentiform Loewenfeld","3.3.8","['hori', 'hori', 'hori', 'vert', 'vert', 'vert', 'vert', 'hori']","no",209,"None","yes",0,NA,2,"legacy",NA,1024,2,48000,-16,"experiment",5,"odd","green","no",0,"diamond",278188.3145,278215.1386,278215.1775,NA,281500.3393,NA,NA,93263.6014,1618.50370000002,NA,93263.6238,385541.3543,388797.4692,NA,NA,NA,NA,1618.58399999983,355683.3527,NA,NA,385541.3706,356145.8309,385541.1759,"New experiment",19,"[0]","dist_present",56,15,"yes","yes",1680,NA,NA,NA,NA,"NR","NR","lp",NA,NA,NA,NA,NA,NA,"practice",7,"NR","in"
"11",985.683199999563,14346.3757999998,14346.3757999998,9,9,"#000000","no",389516.6972,1,"neutral","psycho","psycho","psycho",0,"uniform",1,0,0,0,NA,0,0,NA,0,0,0,0,10,10,NA,NA,NA,NA,0,0,0,NA,10,0,10,73.2296414732588,"Fri Jul  9 15:06:23 2021","The main experiment item","yes","green","no","None","diamond",NA,"pinging_target_expectations 3.1.osexp","C:\Users\etp-cp-ping\Desktop\LocalPC-EXP",75,"no","mono","no",18,"no","white","no","yes",1050,NA,100,"psycho",10,0,10,"C:/Users/etp-cp-ping/DATA/subject-5.csv","psycho",6,11,11,"Lentiform Loewenfeld","3.3.8","['vert', 'vert', 'hori', 'vert', 'hori', 'hori', 'hori', 'vert']","no",209,"None","yes",0,NA,2,"legacy",NA,1024,2,48000,-16,"experiment",5,"odd","red","no",3,"circle",278188.3145,278215.1386,278215.1775,NA,281500.3393,NA,NA,93263.6014,1618.50370000002,NA,93263.6238,388827.7868,391677.4688,NA,NA,NA,NA,1618.58399999983,355683.3527,NA,NA,388827.801,356145.8309,388827.7374,"New experiment",19,"[0]","dist_absent",56,49,"yes","yes",1680,NA,NA,NA,NA,"NR","NR","lp",NA,"Left",NA,NA,NA,NA,"practice",0,"NR","in"
"12",968.190100000356,15314.5659000002,15314.5659000002,10,10,"#000000","no",389516.6972,1,"neutral","psycho","psycho","psycho",0,"uniform",1,0,0,0,NA,0,0,NA,0,0,0,0,11,11,NA,NA,NA,NA,0,0,0,NA,11,0,11,73.2296414732588,"Fri Jul  9 15:06:23 2021","The main experiment item","yes","green","no","None","circle",NA,"pinging_target_expectations 3.1.osexp","C:\Users\etp-cp-ping\Desktop\LocalPC-EXP",75,"no","mono","no",18,"no","white","no","yes",1050,NA,100,"psycho",11,0,11,"C:/Users/etp-cp-ping/DATA/subject-5.csv","psycho",6,12,12,"Lentiform Loewenfeld","3.3.8","['vert', 'hori', 'hori', 'vert', 'hori', 'vert', 'hori', 'vert']","yes",109,"circles","yes",0,NA,2,"legacy",NA,1024,2,48000,-16,"experiment",5,"odd","red","no",7,"diamond",278188.3145,278215.1386,278215.1775,NA,281500.3393,NA,NA,93263.6014,1618.50370000002,NA,93263.6238,391707.9094,394397.4183,NA,NA,NA,NA,1618.58399999983,355683.3527,NA,NA,391707.924,356145.8309,391707.8596,"New experiment",19,"[0]","dist_absent",56,89,"yes","yes",1680,NA,NA,NA,NA,"NR","R","lp",NA,"Right",NA,NA,NA,NA,"practice",3,"NR","in"
"13",1363.35030000011,16677.9162000003,16677.9162000003,11,11,"#000000","no",389516.6972,1,"neutral","psycho","psycho","psycho",0,"uniform",1,0,0,0,NA,0,0,NA,0,0,0,0,12,12,NA,NA,NA,NA,0,0,0,NA,12,0,12,73.2296414732588,"Fri Jul  9 15:06:23 2021","The main experiment item","yes","red","no","2","diamond",NA,"pinging_target_expectations 3.1.osexp","C:\Users\etp-cp-ping\Desktop\LocalPC-EXP",75,"no","mono","no",18,"no","white","no","yes",1050,NA,100,"psycho",12,0,12,"C:/Users/etp-cp-ping/DATA/subject-5.csv","psycho",6,13,13,"Lentiform Loewenfeld","3.3.8","['hori', 'hori', 'hori', 'vert', 'hori', 'vert', 'vert', 'vert']","no",209,"None","yes",0,NA,2,"legacy",NA,1024,2,48000,-16,"experiment",5,"odd","green","no",0,"circle",278188.3145,278215.1386,278215.1775,NA,281500.3393,NA,NA,93263.6014,1618.50370000002,NA,93263.6238,394427.7385,397645.4647,NA,NA,NA,NA,1618.58399999983,355683.3527,NA,NA,394427.7528,356145.8309,394427.6888,"New experiment",19,"[0]","dist_present",56,13,"yes","yes",1680,NA,NA,NA,NA,"NR","NR","lp","Left",NA,"Left",NA,NA,NA,"practice",7,"NR","in"
"14",950.92670000036,17628.8429000006,17628.8429000006,11,11,"#000000","no",389516.6972,1,"neutral","psycho","psycho","psycho",0,"uniform",0,0,0,0,NA,0,0,NA,0,0,0,0,13,13,NA,NA,NA,NA,0,0,0,NA,13,0,13,73.2296414732588,"Fri Jul  9 15:06:23 2021","The main experiment item","yes","red","no","0","circle",NA,"pinging_target_expectations 3.1.osexp","C:\Users\etp-cp-ping\Desktop\LocalPC-EXP",75,"no","mono","no",18,"no","white","no","yes",1050,NA,100,"psycho",13,0,13,"C:/Users/etp-cp-ping/DATA/subject-5.csv","psycho",6,14,14,"Lentiform Loewenfeld","3.3.8","['hori', 'hori', 'vert', 'hori', 'vert', 'vert', 'vert', 'hori']","yes",109,"circles","yes",0,NA,2,"legacy",NA,1024,2,48000,-16,"experiment",5,"odd","green","no",1,"diamond",278188.3145,278215.1386,278215.1775,NA,281500.3393,NA,NA,93263.6014,1618.50370000002,NA,93263.6238,397676.2425,400493.3606,NA,NA,NA,NA,1618.58399999983,355683.3527,NA,NA,397676.2567,356145.8309,397676.1919,"New experiment",19,"[0, 73.34427047642541, 73.40414515128732, 74.2428608862756, 75.19629052935589, 75.93056821982654, 74.69952898196605, 74.75533079602063, 74.68607304468841, 73.9340922714278, 73.96114331333061, 73.97108394343196, 74.06066176516416, 75.42553226029024, 75.34733319034667, 74.54185526290117, 74.27624325785867, 75.28113973632439, 74.28492444635049, 74.62982121675186, 75.10165834183289, 75.0648254512047, 74.93265050575184, 74.79519486114759, 74.95383950566458, 73.46358587564166]","dist_present",56,21,"yes","yes",1680,NA,NA,NA,NA,"NR","NR","lp",NA,"Left",NA,NA,NA,NA,"practice",0,"NR","in"
"15",1418.57710000023,19047.4200000009,19047.4200000009,12,12,"#000000","no",401046.8753,1,"neutral","psycho","psycho","psycho",0,"uniform",1,0,0,0,NA,0,0,NA,0,0,0,0,14,14,NA,NA,NA,NA,0,0,0,NA,14,0,14,73.2296414732588,"Fri Jul  9 15:06:23 2021","The main experiment item","yes","red","no","5","diamond",NA,"pinging_target_expectations 3.1.osexp","C:\Users\etp-cp-ping\Desktop\LocalPC-EXP",75,"no","mono","no",18,"no","white","no","yes",1050,NA,100,"psycho",14,0,14,"C:/Users/etp-cp-ping/DATA/subject-5.csv","psycho",7,15,15,"Lentiform Loewenfeld","3.3.8","['hori', 'hori', 'vert', 'vert', 'hori', 'vert', 'vert', 'hori']","no",209,"None","yes",0,NA,2,"legacy",NA,1024,2,48000,-16,"experiment",5,"odd","green","no",3,"circle",278188.3145,278215.1386,278215.1775,NA,281500.3393,NA,NA,93263.6014,1618.50370000002,NA,93263.6238,400523.5389,403741.4499,NA,NA,NA,NA,1618.58399999983,355683.3527,NA,NA,400523.5528,356145.8309,400523.4877,"New experiment",19,"[0, 93.58470757263318, 94.88062628708352, 98.9500650013438, 105.80910364224268, 108.94313000906698, 111.96649930471578, 111.93856473705019, 110.33223896079653, 108.61513961445239, 107.91820294941989, 105.40987287170151, 99.70077552915035, 98.55606147477036, 117.07082356203607, 156.43755686925036, 206.8446097745203, 268.90543627764066, 344.2383276604587, 428.2365534924261, 523.1520230755581, 622.0466958095504, 725.9334160722408, 835.5126628456275, 946.6037884792579, 1070.8294899380558, 1184.7273550116463, 1269.3032202228767, 1364.0619102035528, 1389.2502293735472, 83.3203936063843, 94.35875970055856, 100.75047609127107, 99.1912567100326, 93.61294307066657, 88.96860996762234, 82.61797756714608, 79.99329496132678, 75.23737490774388, 74.5730566218519, 74.06914586479834, 73.87990803017438, 73.74565479785024, 73.34337060844543, 73.47985582066646, 73.88318363619655, 74.51287342241778]","dist_present",56,46,"yes","yes",1680,NA,NA,NA,NA,"NR","NR","lp",NA,NA,NA,NA,NA,NA,"practice",1,"NR","in"
"16",770.07059999957,19817.4906000004,19817.4906000004,13,13,"#000000","no",404276.9663,1,"neutral","psycho","psycho","psycho",0,"uniform",1,0,0,0,NA,0,0,NA,0,0,0,0,15,15,NA,NA,NA,NA,0,0,0,NA,15,0,15,73.2296414732588,"Fri Jul  9 15:06:23 2021","The main experiment item","yes","red","no","3","circle",NA,"pinging_target_expectations 3.1.osexp","C:\Users\etp-cp-ping\Desktop\LocalPC-EXP",75,"no","mono","no",18,"no","white","no","yes",1050,NA,100,"psycho",15,0,15,"C:/Users/etp-cp-ping/DATA/subject-5.csv","psycho",8,16,16,"Lentiform Loewenfeld","3.3.8","['hori', 'hori', 'vert', 'hori', 'hori', 'vert', 'vert', 'vert']","no",209,"None","yes",0,NA,2,"legacy",NA,1024,2,48000,-16,"experiment",5,"odd","green","no",1,"diamond",278188.3145,278215.1386,278215.1775,NA,281500.3393,NA,NA,93263.6014,1618.50370000002,NA,93263.6238,403771.7654,406525.458,NA,NA,NA,NA,1618.58399999983,355683.3527,NA,NA,403771.7797,356145.8309,403771.7153,"New experiment",19,"[0]","dist_present",56,24,"yes","yes",1680,NA,NA,NA,NA,"NR","NR","lp",NA,NA,NA,NA,NA,NA,"practice",3,"NR","in"
"17",651.991499999887,20469.4821000003,20469.4821000003,14,14,"#000000","no",404276.9663,1,"neutral","psycho","psycho","psycho",0,"uniform",1,0,0,0,NA,0,0,NA,0,0,0,0,16,16,NA,NA,NA,NA,0,0,0,NA,16,0,16,73.2296414732588,"Fri Jul  9 15:06:23 2021","The main experiment item","yes","green","no","3","diamond",NA,"pinging_target_expectations 3.1.osexp","C:\Users\etp-cp-ping\Desktop\LocalPC-EXP",75,"no","mono","no",18,"no","white","no","yes",1050,NA,100,"psycho",16,0,16,"C:/Users/etp-cp-ping/DATA/subject-5.csv","psycho",8,17,17,"Lentiform Loewenfeld","3.3.8","['hori', 'hori', 'vert', 'vert', 'vert', 'hori', 'vert', 'hori']","yes",109,"diamond","yes",0,NA,2,"legacy",NA,1024,2,48000,-16,"experiment",5,"odd","red","no",6,"circle",278188.3145,278215.1386,278215.1775,NA,281500.3393,NA,NA,93263.6014,1618.50370000002,NA,93263.6238,406556.045,409133.3939,NA,NA,NA,NA,1618.58399999983,355683.3527,NA,NA,406556.0595,356145.8309,406555.9947,"New experiment",19,"[0]","dist_present",56,74,"yes","yes",1680,NA,NA,NA,NA,"NR","R","lp",NA,NA,NA,NA,NA,NA,"practice",1,"NR","in"
"18",775.358500000031,21244.8406000003,21244.8406000003,15,15,"#000000","no",409755.0203,1,"neutral","psycho","psycho","psycho",0,"uniform",1,0,0,0,NA,0,0,NA,0,0,0,0,17,17,NA,NA,NA,NA,0,0,0,NA,17,0,17,73.2296414732588,"Fri Jul  9 15:06:23 2021","The main experiment item","yes","red","no","4","circle",NA,"pinging_target_expectations 3.1.osexp","C:\Users\etp-cp-ping\Desktop\LocalPC-EXP",75,"no","mono","no",18,"no","white","no","yes",1050,NA,100,"psycho",17,0,17,"C:/Users/etp-cp-ping/DATA/subject-5.csv","psycho",9,18,18,"Lentiform Loewenfeld","3.3.8","['vert', 'vert', 'hori', 'vert', 'hori', 'hori', 'hori', 'vert']","yes",109,"circles","yes",0,NA,2,"legacy",NA,1024,2,48000,-16,"experiment",5,"odd","green","no",5,"diamond",278188.3145,278215.1386,278215.1775,NA,281500.3393,NA,NA,93263.6014,1618.50370000002,NA,93263.6238,409163.8417,411501.4268,NA,NA,NA,NA,1618.58399999983,355683.3527,NA,NA,409163.856,356145.8309,409163.791,"New experiment",19,"[0]","dist_present",56,65,"yes","yes",1680,NA,NA,NA,NA,"NR","NR","lp",NA,"Right",NA,NA,NA,NA,"practice",6,"NR","in"
"19",654.289100000809,21899.1297000012,21899.1297000012,16,16,"#000000","no",409755.0203,1,"neutral","psycho","psycho","psycho",0,"uniform",1,0,0,0,NA,0,0,NA,0,0,0,0,18,18,NA,NA,NA,NA,0,0,0,NA,18,0,18,73.2296414732588,"Fri Jul  9 15:06:23 2021","The main experiment item","yes","green","no","None","circle",NA,"pinging_target_expectations 3.1.osexp","C:\Users\etp-cp-ping\Desktop\LocalPC-EXP",75,"no","mono","no",18,"no","white","no","yes",1050,NA,100,"psycho",18,0,18,"C:/Users/etp-cp-ping/DATA/subject-5.csv","psycho",9,19,19,"Lentiform Loewenfeld","3.3.8","['vert', 'vert', 'vert', 'hori', 'hori', 'vert', 'hori', 'hori']","yes",109,"diamond","yes",0,NA,2,"legacy",NA,1024,2,48000,-16,"experiment",5,"odd","red","no",6,"diamond",278188.3145,278215.1386,278215.1775,NA,281500.3393,NA,NA,93263.6014,1618.50370000002,NA,93263.6238,411532.0072,414061.374,NA,NA,NA,NA,1618.58399999983,355683.3527,NA,NA,411532.0215,356145.8309,411531.9579,"New experiment",19,"[0]","dist_absent",56,79,"yes","yes",1680,NA,NA,NA,NA,"NR","NR","lp",NA,"Right",NA,"Right",NA,NA,"practice",5,"NR","in"
"20",733.465199999919,22632.5949000011,22632.5949000011,17,17,"#000000","no",414825.1136,1,"neutral","psycho","psycho","psycho",0,"uniform",1,0,0,0,NA,0,0,NA,0,0,0,0,19,19,NA,NA,NA,NA,0,0,0,NA,19,0,19,73.2296414732588,"Fri Jul  9 15:06:23 2021","The main experiment item","yes","red","no","None","circle",NA,"pinging_target_expectations 3.1.osexp","C:\Users\etp-cp-ping\Desktop\LocalPC-EXP",75,"no","mono","no",18,"no","white","no","yes",1050,NA,100,"psycho",19,0,19,"C:/Users/etp-cp-ping/DATA/subject-5.csv","psycho",10,20,20,"Lentiform Loewenfeld","3.3.8","['vert', 'vert', 'vert', 'hori', 'hori', 'hori', 'hori', 'vert']","no",209,"None","yes",0,NA,2,"legacy",NA,1024,2,48000,-16,"experiment",5,"odd","green","no",7,"diamond",278188.3145,278215.1386,278215.1775,NA,281500.3393,NA,NA,93263.6014,1618.50370000002,NA,93263.6238,414091.6044,416733.3841,NA,NA,NA,NA,1618.58399999983,355683.3527,NA,NA,414091.6185,356145.8309,414091.5544,"New experiment",19,"[0, 76.81463483607892, 84.15348590197391, 122.31783085718212, 213.42653689358997, 345.6870598103335, 506.42353263281325, 688.100437363191, 884.9988115543655, 1083.3954667966766, 1254.673442760606, 1296.6428659847631]","dist_absent",56,89,"yes","no",1680,NA,NA,NA,NA,"NR","R","lp",NA,"Right",NA,NA,NA,NA,"practice",6,"NR","in"
"21",1009.3348999999,23641.929800001,23641.929800001,18,18,"#000000","no",414825.1136,1,"neutral","psycho","psycho","psycho",0,"uniform",1,0,0,0,NA,0,0,NA,0,0,0,0,20,20,NA,NA,NA,NA,0,0,0,NA,20,0,20,73.2296414732588,"Fri Jul  9 15:06:23 2021","The main experiment item","yes","red","no","6","diamond",NA,"pinging_target_expectations 3.1.osexp","C:\Users\etp-cp-ping\Desktop\LocalPC-EXP",75,"no","mono","no",18,"no","white","no","yes",1050,NA,100,"psycho",20,0,20,"C:/Users/etp-cp-ping/DATA/subject-5.csv","psycho",10,21,21,"Lentiform Loewenfeld","3.3.8","['vert', 'hori', 'vert', 'hori', 'hori', 'vert', 'hori', 'vert']","no",209,"None","yes",0,NA,2,"legacy",NA,1024,2,48000,-16,"experiment",5,"odd","green","no",1,"circle",278188.3145,278215.1386,278215.1775,NA,281500.3393,NA,NA,93263.6014,1618.50370000002,NA,93263.6238,416763.8646,419709.5454,NA,NA,NA,NA,1618.58399999983,355683.3527,NA,NA,416763.8788,356145.8309,416763.8158,"New experiment",19,"[0]","dist_present",56,27,"yes","yes",1680,NA,NA,NA,NA,"NR","NR","lp",NA,NA,NA,NA,NA,NA,"practice",7,"NR","in"
"22",1293.52879999985,24935.4586000008,24935.4586000008,19,19,"#000000","no",420605.1755,1,"neutral","psycho","psycho","psycho",0,"uniform",1,0,0,0,NA,0,0,NA,0,0,0,0,21,21,NA,NA,NA,NA,0,0,0,NA,21,0,21,73.2296414732588,"Fri Jul  9 15:06:23 2021","The main experiment item","yes","green","no","4","diamond",NA,"pinging_target_expectations 3.1.osexp","C:\Users\etp-cp-ping\Desktop\LocalPC-EXP",75,"no","mono","no",18,"no","white","no","yes",1050,NA,100,"psycho",21,0,21,"C:/Users/etp-cp-ping/DATA/subject-5.csv","psycho",11,22,22,"Lentiform Loewenfeld","3.3.8","['vert', 'hori', 'vert', 'hori', 'hori', 'hori', 'vert', 'vert']","yes",109,"circles","yes",0,NA,2,"legacy",NA,1024,2,48000,-16,"experiment",5,"odd","red","no",5,"circle",278188.3145,278215.1386,278215.1775,NA,281500.3393,NA,NA,93263.6014,1618.50370000002,NA,93263.6238,419740.0913,422957.4933,NA,NA,NA,NA,1618.58399999983,355683.3527,NA,NA,419740.1052,356145.8309,419740.0419,"New experiment",19,"[0, 75.30645712920081, 78.85638812886859, 82.87304406805399, 86.52310884531691, 88.41054159978566, 88.17963326862308, 86.41906275087128, 84.5092456919506, 84.42664972240487, 83.92670165090577, 82.26282050953655, 81.02081940014038, 80.05022434677431, 78.21285060653396, 76.63783672298378, 76.0581295927568, 75.19024216672318, 74.01925441676813, 102.37248936892246, 146.86926910362, 201.16114674063815, 264.52875778691777, 325.94484103070477, 389.1234248419675, 458.2647066647311, 526.8935614965181, 593.9980195147971, 661.2404108897558, 728.0715116150292, 792.626678238053, 860.2693507386585, 923.6920956749087, 974.5439959283522, 1066.8292277797418, 1135.0628484318122, 1179.5467279625968, 1213.1419528374977, 1221.3245720939178, 76.72969316365749, 78.91345027482731, 79.55096980474592, 77.9410974260046, 73.66527575991171, 73.43845567862613]","dist_present",56,65,"yes","yes",1680,NA,NA,NA,NA,"NR","NR","lp",NA,"Right",NA,NA,NA,NA,"practice",1,"NR","in"
"23",1192.32929999998,26127.7879000008,26127.7879000008,20,20,"#000000","no",420605.1755,1,"neutral","psycho","psycho","psycho",0,"uniform",1,0,0,0,NA,0,0,NA,0,0,0,0,22,22,NA,NA,NA,NA,0,0,0,NA,22,0,22,73.2296414732588,"Fri Jul  9 15:06:23 2021","The main experiment item","yes","green","no","1","circle",NA,"pinging_target_expectations 3.1.osexp","C:\Users\etp-cp-ping\Desktop\LocalPC-EXP",75,"no","mono","no",18,"no","white","no","yes",1050,NA,100,"psycho",22,0,22,"C:/Users/etp-cp-ping/DATA/subject-5.csv","psycho",11,23,23,"Lentiform Loewenfeld","3.3.8","['vert', 'vert', 'hori', 'vert', 'hori', 'vert', 'hori', 'hori']","no",209,"None","yes",0,NA,2,"legacy",NA,1024,2,48000,-16,"experiment",5,"odd","red","no",7,"diamond",278188.3145,278215.1386,278215.1775,NA,281500.3393,NA,NA,93263.6014,1618.50370000002,NA,93263.6238,422990.0833,426077.4148,NA,NA,NA,NA,1618.58399999983,355683.3527,NA,NA,422990.0976,356145.8309,422990.0329,"New experiment",19,"[0]","dist_present",56,82,"yes","yes",1680,NA,NA,NA,NA,"NR","NR","lp",NA,NA,NA,NA,NA,NA,"practice",5,"NR","in"
"24",899.388899999438,27027.1768000002,27027.1768000002,21,21,"#000000","no",427331.2969,1,"neutral","psycho","psycho","psycho",0,"uniform",1,0,0,0,NA,0,0,NA,0,0,0,0,23,23,NA,NA,NA,NA,0,0,0,NA,23,0,23,73.2296414732588,"Fri Jul  9 15:06:23 2021","The main experiment item","yes","red","no","1","circle",NA,"pinging_target_expectations 3.1.osexp","C:\Users\etp-cp-ping\Desktop\LocalPC-EXP",75,"no","mono","no",18,"no","white","no","yes",1050,NA,100,"psycho",23,0,23,"C:/Users/etp-cp-ping/DATA/subject-5.csv","psycho",13,24,24,"Lentiform Loewenfeld","3.3.8","['vert', 'hori', 'hori', 'vert', 'hori', 'vert', 'vert', 'hori']","yes",109,"diamond","yes",0,NA,2,"legacy",NA,1024,2,48000,-16,"experiment",5,"odd","green","no",2,"diamond",278188.3145,278215.1386,278215.1775,NA,281500.3393,NA,NA,93263.6014,1618.50370000002,NA,93263.6238,426109.4691,429133.4057,NA,NA,NA,NA,1618.58399999983,355683.3527,NA,NA,426109.4834,356145.8309,426109.4208,"New experiment",19,"[0]","dist_present",56,32,"yes","yes",1680,NA,NA,NA,NA,"NR","R","lp",NA,NA,NA,NA,NA,NA,"practice",7,"NR","in"
"25",1288.03960000002,28315.2164000003,28315.2164000003,22,22,"#000000","no",427331.2969,1,"neutral","psycho","psycho","psycho",0,"uniform",1,0,0,0,NA,0,0,NA,0,0,0,0,24,24,NA,NA,NA,NA,0,0,0,NA,24,0,24,73.2296414732588,"Fri Jul  9 15:06:23 2021","The main experiment item","yes","green","no","6","diamond",NA,"pinging_target_expectations 3.1.osexp","C:\Users\etp-cp-ping\Desktop\LocalPC-EXP",75,"no","mono","no",18,"no","white","no","yes",1050,NA,100,"psycho",24,0,24,"C:/Users/etp-cp-ping/DATA/subject-5.csv","psycho",13,25,25,"Lentiform Loewenfeld","3.3.8","['hori', 'vert', 'vert', 'vert', 'vert', 'hori', 'hori', 'hori']","no",209,"None","yes",0,NA,2,"legacy",NA,1024,2,48000,-16,"experiment",5,"odd","red","no",3,"circle",278188.3145,278215.1386,278215.1775,NA,281500.3393,NA,NA,93263.6014,1618.50370000002,NA,93263.6238,429164.4532,432397.4623,NA,NA,NA,NA,1618.58399999983,355683.3527,NA,NA,429164.4676,356145.8309,429164.4032,"New experiment",19,"[0]","dist_present",56,47,"yes","yes",1680,NA,NA,NA,NA,"NR","NR","lp",NA,NA,NA,NA,NA,NA,"practice",2,"NR","in"
"26",1154.1043999996,29469.3207999999,29469.3207999999,23,23,"#000000","no",433069.3839,1,"neutral","psycho","psycho","psycho",0,"uniform",1,0,0,0,NA,0,0,NA,0,0,0,0,25,25,NA,NA,NA,NA,0,0,0,NA,25,0,25,73.2296414732588,"Fri Jul  9 15:06:23 2021","The main experiment item","yes","red","no","None","diamond",NA,"pinging_target_expectations 3.1.osexp","C:\Users\etp-cp-ping\Desktop\LocalPC-EXP",75,"no","mono","no",18,"no","white","no","yes",1050,NA,100,"psycho",25,0,25,"C:/Users/etp-cp-ping/DATA/subject-5.csv","psycho",14,26,26,"Lentiform Loewenfeld","3.3.8","['hori', 'hori', 'vert', 'vert', 'hori', 'vert', 'vert', 'hori']","no",209,"None","yes",0,NA,2,"legacy",NA,1024,2,48000,-16,"experiment",5,"odd","green","no",3,"circle",278188.3145,278215.1386,278215.1775,NA,281500.3393,NA,NA,93263.6014,1618.50370000002,NA,93263.6238,432427.961,435341.4267,NA,NA,NA,NA,1618.58399999983,355683.3527,NA,NA,432427.9754,356145.8309,432427.9113,"New experiment",19,"[0]","dist_absent",56,49,"yes","yes",1680,NA,NA,NA,NA,"R","NR","lp",NA,"Left",NA,NA,NA,NA,"practice",3,"NR","in"
"27",936.61599999998,30405.9367999999,30405.9367999999,24,24,"#000000","no",433069.3839,1,"neutral","psycho","psycho","psycho",0,"uniform",1,0,0,0,NA,0,0,NA,0,0,0,0,26,26,NA,NA,NA,NA,0,0,0,NA,26,0,26,73.2296414732588,"Fri Jul  9 15:06:23 2021","The main experiment item","yes","green","no","None","circle",NA,"pinging_target_expectations 3.1.osexp","C:\Users\etp-cp-ping\Desktop\LocalPC-EXP",75,"no","mono","no",18,"no","white","no","yes",1050,NA,100,"psycho",26,0,26,"C:/Users/etp-cp-ping/DATA/subject-5.csv","psycho",14,27,27,"Lentiform Loewenfeld","3.3.8","['hori', 'vert', 'hori', 'hori', 'vert', 'hori', 'vert', 'vert']","no",209,"None","yes",0,NA,2,"legacy",NA,1024,2,48000,-16,"experiment",5,"odd","red","no",4,"diamond",278188.3145,278215.1386,278215.1775,NA,281500.3393,NA,NA,93263.6014,1618.50370000002,NA,93263.6238,435371.7595,438477.402,NA,NA,NA,NA,1618.58399999983,355683.3527,NA,NA,435371.7738,356145.8309,435371.7095,"New experiment",19,"[0]","dist_absent",56,59,"yes","yes",1680,NA,NA,NA,NA,"NR","R","lp",NA,NA,NA,NA,NA,NA,"practice",3,"R","in"
"28",926.928699999757,31332.8654999996,31332.8654999996,25,25,"#000000","no",439305.4526,1,"neutral","psycho","psycho","psycho",0,"uniform",1,0,0,0,NA,0,0,NA,0,0,0,0,27,27,NA,NA,NA,NA,0,0,0,NA,27,0,27,73.2296414732588,"Fri Jul  9 15:06:23 2021","The main experiment item","yes","red","no","2","diamond",NA,"pinging_target_expectations 3.1.osexp","C:\Users\etp-cp-ping\Desktop\LocalPC-EXP",75,"no","mono","no",18,"no","white","no","yes",1050,NA,100,"psycho",27,0,27,"C:/Users/etp-cp-ping/DATA/subject-5.csv","psycho",15,28,28,"Lentiform Loewenfeld","3.3.8","['vert', 'hori', 'hori', 'vert', 'vert', 'vert', 'hori', 'hori']","yes",109,"circles","yes",0,NA,2,"legacy",NA,1024,2,48000,-16,"experiment",5,"odd","green","no",4,"circle",278188.3145,278215.1386,278215.1775,NA,281500.3393,NA,NA,93263.6014,1618.50370000002,NA,93263.6238,438507.9401,441309.3707,NA,NA,NA,NA,1618.58399999983,355683.3527,NA,NA,438507.9542,356145.8309,438507.89,"New experiment",19,"[0, 74.55736619873943, 116.33208673576466, 165.7796577076594, 224.52218385924022, 292.3985693065543, 367.679887946023, 445.611465651764, 535.4301293475057, 634.052986929624, 746.2182077869804, 868.7369368594084, 995.1937266259409, 1129.965400200119, 1247.220537295769, 1357.1369999814879, 1384.644934659469]","dist_present",56,53,"yes","no",1680,NA,NA,NA,NA,"R","NR","lp","Left",NA,"Left",NA,NA,NA,"practice",4,"NR","in"
"29",679.142700000724,32012.0082000003,32012.0082000003,26,26,"#000000","no",439305.4526,1,"neutral","psycho","psycho","psycho",0,"uniform",1,0,0,0,NA,0,0,NA,0,0,0,0,28,28,NA,NA,NA,NA,0,0,0,NA,28,0,28,73.2296414732588,"Fri Jul  9 15:06:23 2021","The main experiment item","yes","red","no","3","circle",NA,"pinging_target_expectations 3.1.osexp","C:\Users\etp-cp-ping\Desktop\LocalPC-EXP",75,"no","mono","no",18,"no","white","no","yes",1050,NA,100,"psycho",28,0,28,"C:/Users/etp-cp-ping/DATA/subject-5.csv","psycho",15,29,29,"Lentiform Loewenfeld","3.3.8","['vert', 'vert', 'hori', 'hori', 'hori', 'vert', 'hori', 'vert']","no",209,"None","yes",0,NA,2,"legacy",NA,1024,2,48000,-16,"experiment",5,"odd","green","no",6,"diamond",278188.3145,278215.1386,278215.1775,NA,281500.3393,NA,NA,93263.6014,1618.50370000002,NA,93263.6238,441340.1747,443949.4018,NA,NA,NA,NA,1618.58399999983,355683.3527,NA,NA,441340.1888,356145.8309,441340.1251,"New experiment",19,"[0, 87.9541519998016, 109.9252451953146, 124.66159689429222, 130.87167941219428, 132.50043130365626, 131.78867652887033, 128.7226945692494, 122.94314024142409, 116.81787113224489, 109.52555424964346, 104.94136879128845, 100.35634665270207, 98.53289458814385, 97.27209499691023, 96.655527107405, 96.46160328443268, 97.0447789104065, 99.01337390307488, 99.94724966733521, 101.2640020941172, 102.8089862265256, 104.81304902235199, 106.17128818132603, 108.24729380548612, 109.53814388522798, 110.31343942146299, 109.71421765507012, 109.43126644243637, 108.92124443943213, 108.38323961027493, 108.14567728138091, 108.38393987511185, 107.40660314169608, 106.84092535203176, 106.92976430643407, 106.82083543854733, 106.18858167397417, 106.89740781862106, 107.17469338581914, 106.96399409481486, 107.12917647812334, 107.09458436354286, 107.30335716548859, 107.11604926552366, 107.23343482075481, 106.65910604512091, 106.6666614507052, 107.00077056892789, 107.6674931878495, 107.15392964073602, 106.45304129051458, 106.41059887520204, 105.95941675022122, 106.06058233502362, 105.62966099530499, 104.91674966539993, 106.04298511633594, 106.27556626001794, 106.88108124717436, 108.74431225024128, 105.25521579893747, 94.86920578383337, 80.95856365030485]","dist_present",56,74,"yes","yes",1680,NA,NA,NA,NA,"NR","NR","lp",NA,NA,NA,NA,NA,NA,"practice",4,"R","in"
"30",840.51789999922,32852.5260999996,32852.5260999996,27,27,"#000000","no",444693.5831,1,"neutral","psycho","psycho","psycho",0,"uniform",1,0,0,0,NA,0,0,NA,0,0,0,0,29,29,NA,NA,NA,NA,0,0,0,NA,29,0,29,73.2296414732588,"Fri Jul  9 15:06:23 2021","The main experiment item","yes","red","no","6","diamond",NA,"pinging_target_expectations 3.1.osexp","C:\Users\etp-cp-ping\Desktop\LocalPC-EXP",75,"no","mono","no",18,"no","white","no","yes",1050,NA,100,"psycho",29,0,29,"C:/Users/etp-cp-ping/DATA/subject-5.csv","psycho",16,30,30,"Lentiform Loewenfeld","3.3.8","['vert', 'vert', 'hori', 'hori', 'hori', 'hori', 'vert', 'vert']","no",209,"None","yes",0,NA,2,"legacy",NA,1024,2,48000,-16,"experiment",5,"odd","green","no",4,"circle",278188.3145,278215.1386,278215.1775,NA,281500.3393,NA,NA,93263.6014,1618.50370000002,NA,93263.6238,443979.9632,446717.4219,NA,NA,NA,NA,1618.58399999983,355683.3527,NA,NA,443979.978,356145.8309,443979.9136,"New experiment",19,"[0, 75.1409554993811, 81.35411352297758, 86.46922712022948, 91.74772494039853, 94.78147019478783, 96.4409195536636, 95.34555955858802, 92.47166471095164, 87.4485759185164, 81.11257609027098, 76.05527020514296, 73.46789010489645, 74.35390087738732, 74.25322654829337, 75.66097046147488, 77.04448502871954, 77.9708822666892, 78.30026195964811, 78.90788488405798, 78.25213842425966, 79.50803392422927, 79.58950486507702, 80.23895109272732, 80.14818196177404, 80.53948414200312, 79.99783291743046, 79.57192846297339, 79.20156696965893, 78.73208208546163, 78.84954026498824, 78.64002978552789, 78.50889593366729, 78.39005038906404, 78.08795679605358, 78.22280040951517, 77.3692623642607, 78.50005433293683, 78.4949063926481, 79.68246774858727, 81.13650572359802, 81.96403652634582, 79.12602279219179, 74.61807203891885]","dist_present",56,57,"yes","yes",1680,NA,NA,NA,NA,"NR","NR","lp","Right",NA,"Right",NA,NA,NA,"practice",6,"NR","in"
"31",849.577699999849,33702.1037999994,33702.1037999994,28,28,"#000000","no",447395.5942,1,"neutral","psycho","psycho","psycho",0,"uniform",1,0,0,0,NA,0,0,NA,0,0,0,0,30,30,NA,NA,NA,NA,0,0,0,NA,30,0,30,73.2296414732588,"Fri Jul  9 15:06:23 2021","The main experiment item","yes","green","no","6","circle",NA,"pinging_target_expectations 3.1.osexp","C:\Users\etp-cp-ping\Desktop\LocalPC-EXP",75,"no","mono","no",18,"no","white","no","yes",1050,NA,100,"psycho",30,0,30,"C:/Users/etp-cp-ping/DATA/subject-5.csv","psycho",17,31,31,"Lentiform Loewenfeld","3.3.8","['hori', 'hori', 'hori', 'vert', 'vert', 'vert', 'vert', 'hori']","yes",109,"circles","yes",0,NA,2,"legacy",NA,1024,2,48000,-16,"experiment",5,"odd","red","no",1,"diamond",278188.3145,278215.1386,278215.1775,NA,281500.3393,NA,NA,93263.6014,1618.50370000002,NA,93263.6238,446749.3309,449277.4779,NA,NA,NA,NA,1618.58399999983,355683.3527,NA,NA,446749.3452,356145.8309,446749.2807,"New experiment",19,"[0, 77.85282893789672, 83.7828576592459, 85.73646672259342, 84.59459459428278, 82.42118790442393, 78.0149891228101, 112.17060343469268, 158.5284962122849, 209.4307306193042, 267.5968732254907, 326.2836325905499, 389.2843024572776, 454.4039415887014, 521.2647029738429, 591.4671853804203, 659.5708675967466, 728.1361479833288, 800.756050813879, 875.296780707211, 949.3563700649064, 1003.4163708335832, 1117.0940653891853, 1165.5728376764791, 1202.7842711455116]","dist_present",56,27,"yes","no",1680,NA,NA,NA,NA,"NR","R","lp",NA,NA,NA,NA,NA,NA,"practice",4,"NR","in"
"32",1031.74140000012,34733.8451999995,34733.8451999995,29,29,"#000000","no",447395.5942,1,"neutral","psycho","psycho","psycho",0,"uniform",1,0,0,0,NA,0,0,NA,0,0,0,0,31,31,NA,NA,NA,NA,0,0,0,NA,31,0,31,73.2296414732588,"Fri Jul  9 15:06:23 2021","The main experiment item","yes","red","no","4","circle",NA,"pinging_target_expectations 3.1.osexp","C:\Users\etp-cp-ping\Desktop\LocalPC-EXP",75,"no","mono","no",18,"no","white","no","yes",1050,NA,100,"psycho",31,0,31,"C:/Users/etp-cp-ping/DATA/subject-5.csv","psycho",17,32,32,"Lentiform Loewenfeld","3.3.8","['hori', 'vert', 'hori', 'hori', 'vert', 'vert', 'vert', 'hori']","yes",109,"circles","yes",0,NA,2,"legacy",NA,1024,2,48000,-16,"experiment",5,"odd","green","no",2,"diamond",278188.3145,278215.1386,278215.1775,NA,281500.3393,NA,NA,93263.6014,1618.50370000002,NA,93263.6238,449308.1079,452221.5078,NA,NA,NA,NA,1618.58399999983,355683.3527,NA,NA,449308.1224,356145.8309,449308.0573,"New experiment",19,"[0]","dist_present",56,35,"yes","yes",1680,NA,NA,NA,NA,"NR","NR","lp",NA,"Left",NA,"Left",NA,NA,"practice",1,"NR","in"
"33",916.960800000175,35650.8059999997,35650.8059999997,30,30,"#000000","no",452997.6955,1,"neutral","psycho","psycho","psycho",0,"uniform",1,0,0,0,NA,0,0,NA,0,0,0,0,32,32,NA,NA,NA,NA,0,0,0,NA,32,0,32,73.2296414732588,"Fri Jul  9 15:06:23 2021","The main experiment item","yes","red","no","7","diamond",NA,"pinging_target_expectations 3.1.osexp","C:\Users\etp-cp-ping\Desktop\LocalPC-EXP",75,"no","mono","no",18,"no","white","no","yes",1050,NA,100,"psycho",32,0,32,"C:/Users/etp-cp-ping/DATA/subject-5.csv","psycho",18,33,33,"Lentiform Loewenfeld","3.3.8","['vert', 'hori', 'hori', 'vert', 'vert', 'hori', 'hori', 'vert']","no",209,"None","yes",0,NA,2,"legacy",NA,1024,2,48000,-16,"experiment",5,"odd","green","no",0,"circle",278188.3145,278215.1386,278215.1775,NA,281500.3393,NA,NA,93263.6014,1618.50370000002,NA,93263.6238,452252.1194,455085.3875,NA,NA,NA,NA,1618.58399999983,355683.3527,NA,NA,452252.1337,356145.8309,452252.068,"New experiment",19,"[0]","dist_present",56,18,"yes","yes",1680,NA,NA,NA,NA,"NR","NR","lp","Right",NA,NA,NA,NA,NA,"practice",2,"NR","in"
"34",671.878000000084,36322.6839999998,36322.6839999998,31,31,"#000000","no",455923.7473,1,"neutral","psycho","psycho","psycho",0,"uniform",1,0,0,0,NA,0,0,NA,0,0,0,0,33,33,NA,NA,NA,NA,0,0,0,NA,33,0,33,73.2296414732588,"Fri Jul  9 15:06:23 2021","The main experiment item","yes","green","no","None","diamond",NA,"pinging_target_expectations 3.1.osexp","C:\Users\etp-cp-ping\Desktop\LocalPC-EXP",75,"no","mono","no",18,"no","white","no","yes",1050,NA,100,"psycho",33,0,33,"C:/Users/etp-cp-ping/DATA/subject-5.csv","psycho",19,34,34,"Lentiform Loewenfeld","3.3.8","['vert', 'hori', 'hori', 'hori', 'hori', 'vert', 'vert', 'vert']","yes",109,"circles","yes",0,NA,2,"legacy",NA,1024,2,48000,-16,"experiment",5,"odd","red","no",1,"circle",278188.3145,278215.1386,278215.1775,NA,281500.3393,NA,NA,93263.6014,1618.50370000002,NA,93263.6238,455115.9321,457629.3831,NA,NA,NA,NA,1618.58399999983,355683.3527,NA,NA,455115.9464,356145.8309,455115.8838,"New experiment",19,"[0, 88.2544864713685, 124.8733620622708, 177.24112316894377, 235.30742564872634, 302.2994304726079, 369.6747390681147, 443.05317784762497, 521.7159519616499, 608.9514599347332, 701.6624649166096, 796.0358351296438, 894.3632829748752, 998.5196100259853, 1116.7840238352067, 1201.0416536424457, 1282.7946193866533, 1302.5761469464087]","dist_absent",56,29,"yes","no",1680,NA,NA,NA,NA,"NR","NR","lp",NA,"Left",NA,NA,NA,NA,"practice",0,"NR","in"
"35",594.799599999504,36917.4835999993,36917.4835999993,32,32,"#000000","no",455923.7473,1,"neutral","psycho","psycho","psycho",0,"uniform",1,0,0,0,NA,0,0,NA,0,0,0,0,34,34,NA,NA,NA,NA,0,0,0,NA,34,0,34,73.2296414732588,"Fri Jul  9 15:06:23 2021","The main experiment item","yes","green","no","None","diamond",NA,"pinging_target_expectations 3.1.osexp","C:\Users\etp-cp-ping\Desktop\LocalPC-EXP",75,"no","mono","no",18,"no","white","no","yes",1050,NA,100,"psycho",34,0,34,"C:/Users/etp-cp-ping/DATA/subject-5.csv","psycho",19,35,35,"Lentiform Loewenfeld","3.3.8","['hori', 'vert', 'hori', 'vert', 'vert', 'hori', 'hori', 'vert']","yes",109,"diamond","yes",0,NA,2,"legacy",NA,1024,2,48000,-16,"experiment",5,"odd","red","no",5,"circle",278188.3145,278215.1386,278215.1775,NA,281500.3393,NA,NA,93263.6014,1618.50370000002,NA,93263.6238,457659.8188,460173.3375,NA,NA,NA,NA,1618.58399999983,355683.3527,NA,NA,457659.8333,356145.8309,457659.7685,"New experiment",19,"[0, 89.02502370789996, 98.08251060570915, 101.6284082660922, 104.603271036446, 106.44294641866084, 103.26606618248313, 97.2622308770261, 92.70965500872191, 87.94594038485194, 81.81644192005253, 76.72062203355489, 73.55335865767765, 76.11465697130562, 77.96695662705028, 79.295988372511, 80.09918506603226, 81.81859671587496, 83.18666486245672, 83.24094254993938, 83.23666080315996, 84.12527706469402, 84.07580939886554, 83.6766429255462, 83.95628445921072, 82.47241570990927, 81.8413098624405, 81.72209003690496, 81.46658452722806, 82.64414055022837, 82.61161841454633, 81.22221324739577, 81.28035197805511, 81.87916601400617, 79.79857904608347, 79.49445885883496, 80.21552536918402, 80.30956019668871, 80.03113593925092, 80.18284670832128, 79.97405440167549, 80.07249416178946, 79.45572519098668, 79.72265699645844, 78.77340921910134, 79.60666377866832, 80.22672412098036, 80.35122315497874, 81.28035197805511, 82.0011145836997, 82.25714783008692, 82.19884858079557, 82.14059411855222, 81.28415880512907, 80.9237335209727, 80.75994699160674, 79.93422622669988, 81.10173312403876, 80.68769296731357, 80.59833522241728, 80.8198851336016, 81.12490369793976, 81.45784521379937, 81.57509488782576, 78.81624198095213]","dist_absent",56,69,"yes","yes",1680,NA,NA,NA,NA,"NR","R","lp",NA,"Right",NA,NA,NA,NA,"practice",1,"NR","in"
"36",708.04200000019,37625.5255999995,37625.5255999995,33,33,"#000000","no",455923.7473,1,"neutral","psycho","psycho","psycho",0,"uniform",1,0,0,0,NA,0,0,NA,0,0,0,0,35,35,NA,NA,NA,NA,0,0,0,NA,35,0,35,73.2296414732588,"Fri Jul  9 15:06:23 2021","The main experiment item","yes","green","no","None","diamond",NA,"pinging_target_expectations 3.1.osexp","C:\Users\etp-cp-ping\Desktop\LocalPC-EXP",75,"no","mono","no",18,"no","white","no","yes",1050,NA,100,"psycho",35,0,35,"C:/Users/etp-cp-ping/DATA/subject-5.csv","psycho",19,36,36,"Lentiform Loewenfeld","3.3.8","['vert', 'vert', 'vert', 'vert', 'hori', 'hori', 'hori', 'hori']","yes",109,"diamond","yes",0,NA,2,"legacy",NA,1024,2,48000,-16,"experiment",5,"odd","red","no",4,"circle",278188.3145,278215.1386,278215.1775,NA,281500.3393,NA,NA,93263.6014,1618.50370000002,NA,93263.6238,460203.8663,462829.3644,NA,NA,NA,NA,1618.58399999983,355683.3527,NA,NA,460203.8804,356145.8309,460203.8171,"New experiment",19,"[0]","dist_absent",56,59,"yes","yes",1680,NA,NA,NA,NA,"NR","R","lp",NA,NA,NA,NA,NA,NA,"practice",5,"NR","in"
"37",749.347900000401,38374.8734999999,38374.8734999999,34,34,"#000000","no",455923.7473,1,"neutral","psycho","psycho","psycho",0,"uniform",1,0,0,0,NA,0,0,NA,0,0,0,0,36,36,NA,NA,NA,NA,0,0,0,NA,36,0,36,73.2296414732588,"Fri Jul  9 15:06:23 2021","The main experiment item","yes","green","no","0","diamond",NA,"pinging_target_expectations 3.1.osexp","C:\Users\etp-cp-ping\Desktop\LocalPC-EXP",75,"no","mono","no",18,"no","white","no","yes",1050,NA,100,"psycho",36,0,36,"C:/Users/etp-cp-ping/DATA/subject-5.csv","psycho",19,37,37,"Lentiform Loewenfeld","3.3.8","['hori', 'vert', 'hori', 'vert', 'hori', 'hori', 'vert', 'vert']","yes",109,"diamond","yes",0,NA,2,"legacy",NA,1024,2,48000,-16,"experiment",5,"odd","red","no",2,"circle",278188.3145,278215.1386,278215.1775,NA,281500.3393,NA,NA,93263.6014,1618.50370000002,NA,93263.6238,462861.3832,465469.387,NA,NA,NA,NA,1618.58399999983,355683.3527,NA,NA,462861.3993,356145.8309,462861.3342,"New experiment",19,"[0]","dist_present",56,31,"yes","yes",1680,NA,NA,NA,NA,"NR","NR","lp",NA,"Left",NA,"Left",NA,NA,"practice",4,"NR","in"
"38",591.556499999599,38966.4299999995,38966.4299999995,35,35,"#000000","no",466095.8474,1,"neutral","psycho","psycho","psycho",0,"uniform",1,0,0,0,NA,0,0,NA,0,0,0,0,37,37,NA,NA,NA,NA,0,0,0,NA,37,0,37,73.2296414732588,"Fri Jul  9 15:06:23 2021","The main experiment item","yes","green","no","None","diamond",NA,"pinging_target_expectations 3.1.osexp","C:\Users\etp-cp-ping\Desktop\LocalPC-EXP",75,"no","mono","no",18,"no","white","no","yes",1050,NA,100,"psycho",37,0,37,"C:/Users/etp-cp-ping/DATA/subject-5.csv","psycho",20,38,38,"Lentiform Loewenfeld","3.3.8","['hori', 'vert', 'hori', 'vert', 'hori', 'vert', 'hori', 'vert']","no",209,"None","yes",0,NA,2,"legacy",NA,1024,2,48000,-16,"experiment",5,"odd","red","no",7,"circle",278188.3145,278215.1386,278215.1775,NA,281500.3393,NA,NA,93263.6014,1618.50370000002,NA,93263.6238,465500.1509,467821.3418,NA,NA,NA,NA,1618.58399999983,355683.3527,NA,NA,465500.165,356145.8309,465500.1009,"New experiment",19,"[0, 87.43297360291521, 122.95447254710453, 163.76428112671385, 210.45979441669675, 258.6695717958482, 307.63588070187063, 356.1035699542773, 403.06253814181355, 453.3615119015216, 504.29677235184914, 552.8716159786859, 604.2534335023796, 652.814427272468, 704.5220597059441, 753.174781382806, 807.1640061579288, 854.0627447944919, 866.9048486251687]","dist_absent",56,89,"yes","no",1680,NA,NA,NA,NA,"NR","NR","lp",NA,"Right",NA,NA,NA,NA,"practice",2,"NR","in"
"39",591.997399999877,39558.4273999993,39558.4273999993,36,36,"#000000","no",466095.8474,1,"neutral","psycho","psycho","psycho",0,"uniform",1,0,0,0,NA,0,0,NA,0,0,0,0,38,38,NA,NA,NA,NA,0,0,0,NA,38,0,38,73.2296414732588,"Fri Jul  9 15:06:23 2021","The main experiment item","yes","red","no","5","diamond",NA,"pinging_target_expectations 3.1.osexp","C:\Users\etp-cp-ping\Desktop\LocalPC-EXP",75,"no","mono","no",18,"no","white","no","yes",1050,NA,100,"psycho",38,0,38,"C:/Users/etp-cp-ping/DATA/subject-5.csv","psycho",20,39,39,"Lentiform Loewenfeld","3.3.8","['hori', 'hori', 'hori', 'vert', 'vert', 'hori', 'vert', 'vert']","no",209,"None","yes",0,NA,2,"legacy",NA,1024,2,48000,-16,"experiment",5,"odd","green","no",0,"circle",278188.3145,278215.1386,278215.1775,NA,281500.3393,NA,NA,93263.6014,1618.50370000002,NA,93263.6238,467851.7892,470205.3606,NA,NA,NA,NA,1618.58399999983,355683.3527,NA,NA,467851.8032,356145.8309,467851.7394,"New experiment",19,"[0]","dist_present",56,16,"yes","yes",1680,NA,NA,NA,NA,"NR","NR","lp","Right",NA,NA,NA,NA,NA,"practice",7,"NR","in"
"40",610.813100000087,40169.2404999994,40169.2404999994,37,37,"#000000","no",471147.9283,1,"neutral","psycho","psycho","psycho",0,"uniform",1,0,0,0,NA,0,0,NA,0,0,0,0,39,39,NA,NA,NA,NA,0,0,0,NA,39,0,39,73.2296414732588,"Fri Jul  9 15:06:23 2021","The main experiment item","yes","green","no","None","diamond",NA,"pinging_target_expectations 3.1.osexp","C:\Users\etp-cp-ping\Desktop\LocalPC-EXP",75,"no","mono","no",18,"no","white","no","yes",1050,NA,100,"psycho",39,0,39,"C:/Users/etp-cp-ping/DATA/subject-5.csv","psycho",21,40,40,"Lentiform Loewenfeld","3.3.8","['hori', 'vert', 'vert', 'hori', 'hori', 'vert', 'hori', 'vert']","no",209,"None","yes",0,NA,2,"legacy",NA,1024,2,48000,-16,"experiment",5,"odd","red","no",2,"circle",278188.3145,278215.1386,278215.1775,NA,281500.3393,NA,NA,93263.6014,1618.50370000002,NA,93263.6238,470235.7022,472765.3609,NA,NA,NA,NA,1618.58399999983,355683.3527,NA,NA,470235.7164,356145.8309,470235.652,"New experiment",19,"[0, 78.68400637287957, 84.0892854049936, 89.5142452219558, 90.45314309061536, 88.8615269900565, 85.50816482910946, 83.27809395403654, 81.40495819812767, 82.47095242062298, 85.47513108892056, 87.27846672802421, 88.89076854719386, 88.42680523480077, 85.06427511522804, 83.77117100647997, 81.57353607089449, 79.15680640349726, 77.95087644269141, 79.02307610829847, 81.40393065914297, 83.00486860956543, 84.51747490580792, 83.30025576109342, 82.5688122113949, 80.37959065428424, 75.62644536325799, 84.2534394292851, 151.539491198099, 223.53268462619096, 306.1016090348294, 395.3665005421897, 487.6993214467789, 582.1068374365916, 684.3128358753409, 791.2258446910901, 893.0913111429667, 997.8516618895542, 1086.3417259913595, 1180.7151116910416, 1264.7738924443331, 1324.596931204453, 1456.5015865192884]","dist_absent",56,39,"yes","no",1680,NA,NA,NA,NA,"NR","NR","lp",NA,"Left",NA,"Left",NA,NA,"practice",0,"NR","in"
"41",757.164900000149,40926.4053999996,40926.4053999996,38,38,"#000000","no",471147.9283,1,"neutral","psycho","psycho","psycho",0,"uniform",1,0,0,0,NA,0,0,NA,0,0,0,0,40,40,NA,NA,NA,NA,0,0,0,NA,40,0,40,73.2296414732588,"Fri Jul  9 15:06:23 2021","The main experiment item","yes","green","no","3","diamond",NA,"pinging_target_expectations 3.1.osexp","C:\Users\etp-cp-ping\Desktop\LocalPC-EXP",75,"no","mono","no",18,"no","white","no","yes",1050,NA,100,"psycho",40,0,40,"C:/Users/etp-cp-ping/DATA/subject-5.csv","psycho",21,41,41,"Lentiform Loewenfeld","3.3.8","['vert', 'hori', 'vert', 'hori', 'vert', 'vert', 'hori', 'hori']","no",209,"None","yes",0,NA,2,"legacy",NA,1024,2,48000,-16,"experiment",5,"odd","red","no",1,"circle",278188.3145,278215.1386,278215.1775,NA,281500.3393,NA,NA,93263.6014,1618.50370000002,NA,93263.6238,472795.8761,475421.3494,NA,NA,NA,NA,1618.58399999983,355683.3527,NA,NA,472795.8902,356145.8309,472795.8275,"New experiment",19,"[0, 77.30523318876496, 79.88443959223521, 79.2949481908772, 74.26938422462932]","dist_present",56,24,"yes","yes",1680,NA,NA,NA,NA,"NR","NR","lp",NA,NA,NA,NA,NA,NA,"practice",2,"NR","in"
"42",783.080200000782,41709.4856000004,41709.4856000004,39,39,"#000000","no",471147.9283,1,"neutral","psycho","psycho","psycho",0,"uniform",1,0,0,0,NA,0,0,NA,0,0,0,0,41,41,NA,NA,NA,NA,0,0,0,NA,41,0,41,73.2296414732588,"Fri Jul  9 15:06:23 2021","The main experiment item","yes","green","no","0","circle",NA,"pinging_target_expectations 3.1.osexp","C:\Users\etp-cp-ping\Desktop\LocalPC-EXP",75,"no","mono","no",18,"no","white","no","yes",1050,NA,100,"psycho",41,0,41,"C:/Users/etp-cp-ping/DATA/subject-5.csv","psycho",21,42,42,"Lentiform Loewenfeld","3.3.8","['hori', 'vert', 'hori', 'hori', 'hori', 'vert', 'vert', 'vert']","yes",109,"circles","yes",0,NA,2,"legacy",NA,1024,2,48000,-16,"experiment",5,"odd","red","no",3,"diamond",278188.3145,278215.1386,278215.1775,NA,281500.3393,NA,NA,93263.6014,1618.50370000002,NA,93263.6238,475451.9935,478061.3737,NA,NA,NA,NA,1618.58399999983,355683.3527,NA,NA,475452.0075,356145.8309,475451.9443,"New experiment",19,"[0]","dist_present",56,41,"yes","yes",1680,NA,NA,NA,NA,"NR","NR","lp",NA,"Left",NA,NA,NA,NA,"practice",1,"NR","in"
"43",883.910399999877,42593.3960000002,42593.3960000002,40,40,"#000000","no",478600.0674,1,"neutral","psycho","psycho","psycho",0,"uniform",1,0,0,0,NA,0,0,NA,0,0,0,0,42,42,NA,NA,NA,NA,0,0,0,NA,42,0,42,73.2296414732588,"Fri Jul  9 15:06:23 2021","The main experiment item","yes","green","no","4","circle",NA,"pinging_target_expectations 3.1.osexp","C:\Users\etp-cp-ping\Desktop\LocalPC-EXP",75,"no","mono","no",18,"no","white","no","yes",1050,NA,100,"psycho",42,0,42,"C:/Users/etp-cp-ping/DATA/subject-5.csv","psycho",22,43,43,"Lentiform Loewenfeld","3.3.8","['hori', 'hori', 'hori', 'hori', 'vert', 'vert', 'vert', 'vert']","no",209,"None","yes",0,NA,2,"legacy",NA,1024,2,48000,-16,"experiment",5,"odd","red","no",2,"diamond",278188.3145,278215.1386,278215.1775,NA,281500.3393,NA,NA,93263.6014,1618.50370000002,NA,93263.6238,478091.8727,480797.4468,NA,NA,NA,NA,1618.58399999983,355683.3527,NA,NA,478091.8873,356145.8309,478091.8222,"New experiment",19,"[0]","dist_present",56,35,"yes","yes",1680,NA,NA,NA,NA,"NR","NR","lp",NA,"Left",NA,"Left",NA,NA,"practice",3,"NR","in"
"44",707.007099999813,43300.4031000001,43300.4031000001,41,41,"#000000","no",478600.0674,1,"neutral","psycho","psycho","psycho",0,"uniform",1,0,0,0,NA,0,0,NA,0,0,0,0,43,43,NA,NA,NA,NA,0,0,0,NA,43,0,43,73.2296414732588,"Fri Jul  9 15:06:23 2021","The main experiment item","yes","red","no","6","diamond",NA,"pinging_target_expectations 3.1.osexp","C:\Users\etp-cp-ping\Desktop\LocalPC-EXP",75,"no","mono","no",18,"no","white","no","yes",1050,NA,100,"psycho",43,0,43,"C:/Users/etp-cp-ping/DATA/subject-5.csv","psycho",22,44,44,"Lentiform Loewenfeld","3.3.8","['hori', 'vert', 'hori', 'hori', 'vert', 'hori', 'vert', 'vert']","yes",109,"circles","yes",0,NA,2,"legacy",NA,1024,2,48000,-16,"experiment",5,"odd","green","no",4,"circle",278188.3145,278215.1386,278215.1775,NA,281500.3393,NA,NA,93263.6014,1618.50370000002,NA,93263.6238,480827.9837,483581.3706,NA,NA,NA,NA,1618.58399999983,355683.3527,NA,NA,480827.998,356145.8309,480827.9321,"New experiment",19,"[0]","dist_present",56,57,"yes","yes",1680,NA,NA,NA,NA,"NR","NR","lp","Right",NA,"Right",NA,NA,NA,"practice",2,"NR","in"
"45",609.276899999706,43909.6799999998,43909.6799999998,42,42,"#000000","no",478600.0674,1,"neutral","psycho","psycho","psycho",0,"uniform",1,0,0,0,NA,0,0,NA,0,0,0,0,44,44,NA,NA,NA,NA,0,0,0,NA,44,0,44,73.2296414732588,"Fri Jul  9 15:06:23 2021","The main experiment item","yes","red","no","7","circle",NA,"pinging_target_expectations 3.1.osexp","C:\Users\etp-cp-ping\Desktop\LocalPC-EXP",75,"no","mono","no",18,"no","white","no","yes",1050,NA,100,"psycho",44,0,44,"C:/Users/etp-cp-ping/DATA/subject-5.csv","psycho",22,45,45,"Lentiform Loewenfeld","3.3.8","['vert', 'hori', 'vert', 'vert', 'vert', 'hori', 'hori', 'hori']","yes",109,"circles","yes",0,NA,2,"legacy",NA,1024,2,48000,-16,"experiment",5,"odd","green","no",1,"diamond",278188.3145,278215.1386,278215.1775,NA,281500.3393,NA,NA,93263.6014,1618.50370000002,NA,93263.6238,483611.8427,486349.4277,NA,NA,NA,NA,1618.58399999983,355683.3527,NA,NA,483611.857,356145.8309,483611.7937,"New experiment",19,"[0, 77.72133910796295, 86.07170927885505, 89.59044345572767, 89.22405983816363, 85.78256036254514, 82.16235293606447, 77.99399631968257, 74.64431430757402, 74.15855224842365, 74.23542875916341, 74.27222323676494, 73.37096774249942, 74.73285756613352, 75.23806399153285, 75.9083819559617, 75.98267573413945, 75.24945773008716, 75.54401017384023, 75.68123103166951, 75.80269078936703, 75.90481406564403, 76.49445788684648, 76.44669662135279, 76.40397256639484, 76.79538317154972, 76.75603108619946, 76.1327703309285, 75.54794282466737, 75.85171372873678, 75.90107336680461, 75.68568520094517, 76.80846827232003, 76.1715253597757, 74.82146242231475, 74.90827724624296, 75.04351515941111, 75.13487871820917, 75.44538885325827, 75.22133186197935, 75.84827229513067, 76.52246938195766, 75.40028160306206, 75.17723265600488, 75.4449522682204, 74.99881900926064, 74.82223709771898, 75.4475367604732, 76.47355212624448, 76.20526008773417, 75.84746762237162, 76.1411896847026, 74.1294325307743]","dist_present",56,28,"yes","yes",1680,NA,NA,NA,NA,"NR","NR","lp",NA,NA,NA,NA,NA,NA,"practice",4,"NR","in"
"46",691.21079999971,44600.8907999995,44600.8907999995,43,43,"#000000","no",478600.0674,1,"neutral","psycho","psycho","psycho",0,"uniform",1,0,0,0,NA,0,0,NA,0,0,0,0,45,45,NA,NA,NA,NA,0,0,0,NA,45,0,45,73.2296414732588,"Fri Jul  9 15:06:23 2021","The main experiment item","yes","red","no","5","circle",NA,"pinging_target_expectations 3.1.osexp","C:\Users\etp-cp-ping\Desktop\LocalPC-EXP",75,"no","mono","no",18,"no","white","no","yes",1050,NA,100,"psycho",45,0,45,"C:/Users/etp-cp-ping/DATA/subject-5.csv","psycho",22,46,46,"Lentiform Loewenfeld","3.3.8","['vert', 'vert', 'hori', 'hori', 'vert', 'hori', 'vert', 'hori']","no",209,"None","yes",0,NA,2,"legacy",NA,1024,2,48000,-16,"experiment",5,"odd","green","no",4,"diamond",278188.3145,278215.1386,278215.1775,NA,281500.3393,NA,NA,93263.6014,1618.50370000002,NA,93263.6238,486379.9174,488941.4532,NA,NA,NA,NA,1618.58399999983,355683.3527,NA,NA,486379.9321,356145.8309,486379.8665,"New experiment",19,"[0]","dist_present",56,56,"yes","yes",1680,NA,NA,NA,NA,"NR","NR","lp","Right",NA,NA,NA,NA,NA,"practice",1,"NR","in"
"47",914.626499999897,45515.5172999994,45515.5172999994,44,44,"#000000","no",478600.0674,1,"neutral","psycho","psycho","psycho",0,"uniform",1,0,0,0,NA,0,0,NA,0,0,0,0,46,46,NA,NA,NA,NA,0,0,0,NA,46,0,46,73.2296414732588,"Fri Jul  9 15:06:23 2021","The main experiment item","yes","red","no","2","diamond",NA,"pinging_target_expectations 3.1.osexp","C:\Users\etp-cp-ping\Desktop\LocalPC-EXP",75,"no","mono","no",18,"no","white","no","yes",1050,NA,100,"psycho",46,0,46,"C:/Users/etp-cp-ping/DATA/subject-5.csv","psycho",22,47,47,"Lentiform Loewenfeld","3.3.8","['vert', 'hori', 'hori', 'hori', 'vert', 'hori', 'vert', 'vert']","yes",109,"circles","yes",0,NA,2,"legacy",NA,1024,2,48000,-16,"experiment",5,"odd","green","no",7,"circle",278188.3145,278215.1386,278215.1775,NA,281500.3393,NA,NA,93263.6014,1618.50370000002,NA,93263.6238,488972.1249,491837.351,NA,NA,NA,NA,1618.58399999983,355683.3527,NA,NA,488972.1396,356145.8309,488972.0731,"New experiment",19,"[0]","dist_present",56,83,"yes","yes",1680,NA,NA,NA,NA,"NR","NR","lp",NA,NA,NA,NA,NA,NA,"practice",4,"NR","in"
"48",632.78949999949,46148.3067999989,46148.3067999989,45,45,"#000000","no",492652.2388,1,"neutral","psycho","psycho","psycho",0,"uniform",1,0,0,0,NA,0,0,NA,0,0,0,0,47,47,NA,NA,NA,NA,0,0,0,NA,47,0,47,73.2296414732588,"Fri Jul  9 15:06:23 2021","The main experiment item","yes","green","no","None","circle",NA,"pinging_target_expectations 3.1.osexp","C:\Users\etp-cp-ping\Desktop\LocalPC-EXP",75,"no","mono","no",18,"no","white","no","yes",1050,NA,100,"psycho",47,0,47,"C:/Users/etp-cp-ping/DATA/subject-5.csv","psycho",23,48,48,"Lentiform Loewenfeld","3.3.8","['hori', 'vert', 'vert', 'vert', 'vert', 'hori', 'hori', 'hori']","no",209,"None","yes",0,NA,2,"legacy",NA,1024,2,48000,-16,"experiment",5,"odd","red","no",6,"diamond",278188.3145,278215.1386,278215.1775,NA,281500.3393,NA,NA,93263.6014,1618.50370000002,NA,93263.6238,491867.8593,494381.4278,NA,NA,NA,NA,1618.58399999983,355683.3527,NA,NA,491867.8733,356145.8309,491867.8096,"New experiment",19,"[0, 73.24870455172905, 75.94215414621331, 78.38269110364342, 78.74064011526619, 79.26998461855584, 82.37017602529598, 85.5618022150752, 88.67842478563506, 88.82707920448584, 88.14580555596321, 88.04480900970162, 84.36023062286478, 82.67192937445168, 81.36588706654402, 81.24561105934889, 75.44700126578923, 78.30926490038347, 112.2248033167926, 156.9025396021189, 208.7782326997222, 267.9460013576531, 328.1940529906923, 393.74934752550257, 458.84610068227596, 525.0293694724097, 594.6578346700502, 661.901724064333, 731.870520077959, 798.4455688040208, 867.2542983422838, 942.5260196629587, 1011.4975810619339, 1081.8788078592816, 1169.6287260752254, 1204.2298475812943, 1259.4845165403137, 1313.4539850001945, 1374.2092507790646, 1453.872521623152]","dist_absent",56,79,"yes","no",1680,NA,NA,NA,NA,"NR","NR","lp",NA,"Right",NA,"Right",NA,NA,"practice",7,"NR","in"
"49",730.606600000057,46878.9133999989,46878.9133999989,46,46,"#000000","no",492652.2388,1,"neutral","psycho","psycho","psycho",0,"uniform",1,0,0,0,NA,0,0,NA,0,0,0,0,48,48,NA,NA,NA,NA,0,0,0,NA,48,0,48,73.2296414732588,"Fri Jul  9 15:06:23 2021","The main experiment item","yes","green","no","7","circle",NA,"pinging_target_expectations 3.1.osexp","C:\Users\etp-cp-ping\Desktop\LocalPC-EXP",75,"no","mono","no",18,"no","white","no","yes",1050,NA,100,"psycho",48,0,48,"C:/Users/etp-cp-ping/DATA/subject-5.csv","psycho",23,49,49,"Lentiform Loewenfeld","3.3.8","['hori', 'hori', 'vert', 'vert', 'vert', 'vert', 'hori', 'hori']","yes",109,"circles","yes",0,NA,2,"legacy",NA,1024,2,48000,-16,"experiment",5,"odd","red","no",5,"diamond",278188.3145,278215.1386,278215.1775,NA,281500.3393,NA,NA,93263.6014,1618.50370000002,NA,93263.6238,494411.9719,496925.3628,NA,NA,NA,NA,1618.58399999983,355683.3527,NA,NA,494411.9861,356145.8309,494411.9229,"New experiment",19,"[0]","dist_present",56,68,"yes","yes",1680,NA,NA,NA,NA,"NR","NR","lp",NA,NA,NA,NA,NA,NA,"practice",6,"NR","in"
"50",635.335500000103,47514.248899999,47514.248899999,47,47,"#000000","no",497710.3239,1,"neutral","psycho","psycho","psycho",0,"uniform",1,0,0,0,NA,0,0,NA,0,0,0,0,49,49,NA,NA,NA,NA,0,0,0,NA,49,0,49,73.2296414732588,"Fri Jul  9 15:06:23 2021","The main experiment item","yes","green","no","2","circle",NA,"pinging_target_expectations 3.1.osexp","C:\Users\etp-cp-ping\Desktop\LocalPC-EXP",75,"no","mono","no",18,"no","white","no","yes",1050,NA,100,"psycho",49,0,49,"C:/Users/etp-cp-ping/DATA/subject-5.csv","psycho",24,50,50,"Lentiform Loewenfeld","3.3.8","['vert', 'vert', 'hori', 'vert', 'hori', 'hori', 'hori', 'vert']","no",209,"None","yes",0,NA,2,"legacy",NA,1024,2,48000,-16,"experiment",5,"odd","red","no",6,"diamond",278188.3145,278215.1386,278215.1775,NA,281500.3393,NA,NA,93263.6014,1618.50370000002,NA,93263.6238,496955.8105,499389.3803,NA,NA,NA,NA,1618.58399999983,355683.3527,NA,NA,496955.8248,356145.8309,496955.7591,"New experiment",19,"[0, 82.86133944552923, 92.33071217182443, 95.26256176394125, 90.74389668268051, 85.24816713572204, 87.91188846952436, 100.89484801736164, 124.2044886074371, 155.2243810478252, 197.6130659162017, 240.97412268278012, 287.9446071972274, 331.7130326101437, 375.3191091964651, 423.16148388684036, 471.7647718937903, 522.755046800199, 574.0078396677175, 627.55476870129, 677.7171137715421, 727.3001588374121, 778.8118221222289, 831.3791958164043, 882.2157836207812, 934.2045808686756, 984.3231471263645, 997.7482677929298]","dist_present",56,73,"yes","no",1680,NA,NA,NA,NA,"NR","NR","lp",NA,NA,NA,NA,NA,NA,"practice",5,"NR","in"
"51",601.431600000069,48115.6804999991,48115.6804999991,48,48,"#000000","no",499966.3783,1,"neutral","psycho","psycho","psycho",0,"uniform",1,0,0,0,NA,0,0,NA,0,0,0,0,50,50,NA,NA,NA,NA,0,0,0,NA,50,0,50,73.2296414732588,"Fri Jul  9 15:06:23 2021","The main experiment item","yes","green","no","None","circle",NA,"pinging_target_expectations 3.1.osexp","C:\Users\etp-cp-ping\Desktop\LocalPC-EXP",75,"no","mono","no",18,"no","white","no","yes",1050,NA,100,"psycho",50,0,50,"C:/Users/etp-cp-ping/DATA/subject-5.csv","psycho",25,51,51,"Lentiform Loewenfeld","3.3.8","['vert', 'hori', 'vert', 'vert', 'hori', 'hori', 'vert', 'hori']","no",209,"None","yes",0,NA,2,"legacy",NA,1024,2,48000,-16,"experiment",5,"odd","red","no",4,"diamond",278188.3145,278215.1386,278215.1775,NA,281500.3393,NA,NA,93263.6014,1618.50370000002,NA,93263.6238,499420.0297,501805.4044,NA,NA,NA,NA,1618.58399999983,355683.3527,NA,NA,499420.0441,356145.8309,499419.9797,"New experiment",19,"[0, 74.71015271665497, 80.52137403973086, 82.40639211805512, 82.83500631668066, 80.63330939194044, 77.58123432055821, 75.95169092421895, 77.56965973766155, 81.7587782506876, 93.73607715626505, 114.85175936144064, 133.86339043893005, 157.58279702264653, 187.84316054588675, 218.49310923170788, 245.80073230159425, 280.551223241507, 316.6385952470103, 355.7154331380062, 399.31900245625303, 446.9191206530255, 495.3723231248055, 546.3949844912096, 594.633615552977, 643.5059796874897, 695.1955576782177, 748.4440310013199, 810.4611555276053, 867.0202684402661, 923.2969186218072, 1133.323178240828, 1165.4042293290504, 1193.2755568815114, 1214.3750689192766, 1239.297832027187, 1267.1034783950906, 1298.7206204569172, 1325.2723905320174, 1331.835260709794]","dist_absent",56,59,"yes","no",1680,NA,NA,NA,NA,"NR","NR","lp",NA,NA,NA,NA,NA,NA,"practice",6,"NR","in"
"52",792.298900000809,48907.9793999999,48907.9793999999,49,49,"#000000","no",502560.42,1,"neutral","psycho","psycho","psycho",0,"uniform",1,0,0,0,NA,0,0,NA,0,0,0,0,51,51,NA,NA,NA,NA,0,0,0,NA,51,0,51,73.2296414732588,"Fri Jul  9 15:06:23 2021","The main experiment item","yes","green","no","1","diamond",NA,"pinging_target_expectations 3.1.osexp","C:\Users\etp-cp-ping\Desktop\LocalPC-EXP",75,"no","mono","no",18,"no","white","no","yes",1050,NA,100,"psycho",51,0,51,"C:/Users/etp-cp-ping/DATA/subject-5.csv","psycho",26,52,52,"Lentiform Loewenfeld","3.3.8","['hori', 'hori', 'hori', 'vert', 'vert', 'vert', 'vert', 'hori']","no",209,"None","yes",0,NA,2,"legacy",NA,1024,2,48000,-16,"experiment",5,"odd","red","no",2,"circle",278188.3145,278215.1386,278215.1775,NA,281500.3393,NA,NA,93263.6014,1618.50370000002,NA,93263.6238,501835.9164,504317.3903,NA,NA,NA,NA,1618.58399999983,355683.3527,NA,NA,501835.931,356145.8309,501835.866,"New experiment",19,"[0, 89.07446046334793, 137.66367221583684, 187.74040288257737, 244.5438398366455, 304.6201876527334, 364.22546319826745, 425.97852098930815, 483.7899050128925, 546.7764368880904, 607.9730627617874, 665.898062718042, 723.0564691371192, 782.9706306446948, 843.5448171757009, 908.0807732504147, 979.3450297432029, 999.4310093528505]","dist_present",56,32,"yes","no",1680,NA,NA,NA,NA,"NR","NR","lp",NA,NA,NA,NA,NA,NA,"practice",4,"NR","in"
"53",755.189100000309,49663.1685000002,49663.1685000002,50,50,"#000000","no",502560.42,1,"neutral","psycho","psycho","psycho",0,"uniform",1,0,0,0,NA,0,0,NA,0,0,0,0,52,52,NA,NA,NA,NA,0,0,0,NA,52,0,52,73.2296414732588,"Fri Jul  9 15:06:23 2021","The main experiment item","yes","red","no","1","circle",NA,"pinging_target_expectations 3.1.osexp","C:\Users\etp-cp-ping\Desktop\LocalPC-EXP",75,"no","mono","no",18,"no","white","no","yes",1050,NA,100,"psycho",52,0,52,"C:/Users/etp-cp-ping/DATA/subject-5.csv","psycho",26,53,53,"Lentiform Loewenfeld","3.3.8","['vert', 'hori', 'hori', 'vert', 'vert', 'hori', 'hori', 'vert']","yes",109,"diamond","yes",0,NA,2,"legacy",NA,1024,2,48000,-16,"experiment",5,"odd","green","no",0,"diamond",278188.3145,278215.1386,278215.1775,NA,281500.3393,NA,NA,93263.6014,1618.50370000002,NA,93263.6238,504347.9218,506877.4251,NA,NA,NA,NA,1618.58399999983,355683.3527,NA,NA,504347.9358,356145.8309,504347.8734,"New experiment",19,"[0]","dist_present",56,12,"yes","yes",1680,NA,NA,NA,NA,"NR","R","lp","Left",NA,NA,NA,NA,NA,"practice",2,"NR","in"
"54",944.201100000064,50607.3696000003,50607.3696000003,51,51,"#000000","no",507432.4836,1,"neutral","psycho","psycho","psycho",0,"uniform",1,0,0,0,NA,0,0,NA,0,0,0,0,53,53,NA,NA,NA,NA,0,0,0,NA,53,0,53,73.2296414732588,"Fri Jul  9 15:06:23 2021","The main experiment item","yes","red","no","0","circle",NA,"pinging_target_expectations 3.1.osexp","C:\Users\etp-cp-ping\Desktop\LocalPC-EXP",75,"no","mono","no",18,"no","white","no","yes",1050,NA,100,"psycho",53,0,53,"C:/Users/etp-cp-ping/DATA/subject-5.csv","psycho",27,54,54,"Lentiform Loewenfeld","3.3.8","['vert', 'hori', 'vert', 'hori', 'vert', 'hori', 'hori', 'vert']","yes",109,"diamond","yes",0,NA,2,"legacy",NA,1024,2,48000,-16,"experiment",5,"odd","green","no",5,"diamond",278188.3145,278215.1386,278215.1775,NA,281500.3393,NA,NA,93263.6014,1618.50370000002,NA,93263.6238,506908.143,509757.4415,NA,NA,NA,NA,1618.58399999983,355683.3527,NA,NA,506908.1573,356145.8309,506908.0922,"New experiment",19,"[0, 76.82349320934908, 87.33757028955075, 98.40921487847913, 107.905889941118, 110.49536361150773, 109.04501858352583, 104.37841171445098, 99.52651206590234, 97.38014105842495, 99.52369265853864, 105.5092479539532, 112.77413371148366, 123.0357398731505, 139.04892134373304, 153.88738247294881, 158.228439996206, 156.6183656877581, 159.47578299331005, 174.970306353591, 207.14303400811258, 255.70675653833555, 314.2588489300818, 379.23864105615394, 451.80374720532177, 527.1404511367083, 609.7637915471321, 689.0776248623517, 765.7828744084748, 849.0569622507593, 1072.5208812479564, 1120.5469010296833, 1161.3127494567448, 1204.1529696051855, 1240.2240500170615, 1279.4844980926412, 1314.8939676276245, 1343.1705397937105, 1349.7216375505252]","dist_present",56,61,"yes","no",1680,NA,NA,NA,NA,"NR","NR","lp",NA,"Right",NA,NA,NA,NA,"practice",0,"NR","in"
"55",1046.6952000006,51654.0648000009,51654.0648000009,52,52,"#000000","no",507432.4836,1,"neutral","psycho","psycho","psycho",0,"uniform",1,0,0,0,NA,0,0,NA,0,0,0,0,54,54,NA,NA,NA,NA,0,0,0,NA,54,0,54,73.2296414732588,"Fri Jul  9 15:06:23 2021","The main experiment item","yes","green","no","0","diamond",NA,"pinging_target_expectations 3.1.osexp","C:\Users\etp-cp-ping\Desktop\LocalPC-EXP",75,"no","mono","no",18,"no","white","no","yes",1050,NA,100,"psycho",54,0,54,"C:/Users/etp-cp-ping/DATA/subject-5.csv","psycho",27,55,55,"Lentiform Loewenfeld","3.3.8","['vert', 'vert', 'hori', 'vert', 'hori', 'vert', 'hori', 'hori']","yes",109,"diamond","yes",0,NA,2,"legacy",NA,1024,2,48000,-16,"experiment",5,"odd","red","no",6,"circle",278188.3145,278215.1386,278215.1775,NA,281500.3393,NA,NA,93263.6014,1618.50370000002,NA,93263.6238,509787.983,512781.3866,NA,NA,NA,NA,1618.58399999983,355683.3527,NA,NA,509787.9973,356145.8309,509787.9314,"New experiment",19,"[0]","dist_present",56,71,"yes","yes",1680,NA,NA,NA,NA,"NR","R","lp",NA,"Right",NA,"Right",NA,NA,"practice",5,"NR","in"
"56",1276.57919999998,52930.6440000008,52930.6440000008,53,53,"#000000","no",513236.5984,1,"neutral","psycho","psycho","psycho",0,"uniform",1,0,0,0,NA,0,0,NA,0,0,0,0,55,55,NA,NA,NA,NA,0,0,0,NA,55,0,55,73.2296414732588,"Fri Jul  9 15:06:23 2021","The main experiment item","yes","green","no","5","diamond",NA,"pinging_target_expectations 3.1.osexp","C:\Users\etp-cp-ping\Desktop\LocalPC-EXP",75,"no","mono","no",18,"no","white","no","yes",1050,NA,100,"psycho",55,0,55,"C:/Users/etp-cp-ping/DATA/subject-5.csv","psycho",28,56,56,"Lentiform Loewenfeld","3.3.8","['hori', 'hori', 'vert', 'vert', 'vert', 'hori', 'hori', 'vert']","yes",109,"circles","yes",0,NA,2,"legacy",NA,1024,2,48000,-16,"experiment",5,"odd","red","no",6,"circle",278188.3145,278215.1386,278215.1775,NA,281500.3393,NA,NA,93263.6014,1618.50370000002,NA,93263.6238,512811.8229,515853.3647,NA,NA,NA,NA,1618.58399999983,355683.3527,NA,NA,512811.8374,356145.8309,512811.7724,"New experiment",19,"[0]","dist_present",56,76,"yes","yes",1680,NA,NA,NA,NA,"R","NR","lp",NA,NA,NA,NA,NA,NA,"practice",6,"NR","in"
"57",1073.64909999981,1073.64909999981,54004.2931000007,0,53,"#000000","no",513236.5984,2,"bias","psycho","psycho","psycho",0,"uniform",0,0,1,1,NA,1,0,NA,0,0,1,0,56,56,NA,NA,NA,NA,0,1,1,NA,56,1,56,73.2296414732588,"Fri Jul  9 15:06:23 2021","The main experiment item","yes","green","no","2","circle",NA,"pinging_target_expectations 3.1.osexp","C:\Users\etp-cp-ping\Desktop\LocalPC-EXP",75,"no","mono","no",18,"no","white","no","yes",1050,NA,0,"psycho",0,1,0,"C:/Users/etp-cp-ping/DATA/subject-5.csv","psycho",0,57,1,"Lentiform Loewenfeld","3.3.8","['vert', 'hori', 'hori', 'hori', 'vert', 'hori', 'vert', 'vert']","no",200,"None","no",0,NA,2,"legacy",NA,1024,2,48000,-16,"experiment",5,"odd","red","yes",0,"diamond",278188.3145,596001.7721,596001.8209,NA,599393.411,NA,NA,93263.6014,1618.50370000002,516397.5489,93263.6238,621934.4024,624973.511399999,NA,NA,NA,NA,1618.58399999983,621443.0302,515883.1052,NA,621934.4195,621930.0717,621934.3257,"New experiment",19,"[0]","dist_present",56,13,"yes","yes",1680,8.53311219824401,-3.59642249021268,"more away","False","NR","NR","lp","Left",NA,"Left",NA,0,-2,"first",999,"R","in"
"58",1045.21990000014,2118.86899999995,55049.5130000008,0,53,"#000000","no",625888.3151,2,"bias","psycho","psycho","psycho",0,"uniform",0,0,1,1,NA,1,0,NA,0,0,1,0,57,57,NA,NA,NA,NA,0,1,1,NA,57,1,57,73.2296414732588,"Fri Jul  9 15:06:23 2021","The main experiment item","yes","green","no","1","diamond",NA,"pinging_target_expectations 3.1.osexp","C:\Users\etp-cp-ping\Desktop\LocalPC-EXP",75,"no","mono","no",18,"no","white","no","yes",1050,NA,0,"psycho",1,1,1,"C:/Users/etp-cp-ping/DATA/subject-5.csv","psycho",1,58,2,"Lentiform Loewenfeld","3.3.8","['vert', 'hori', 'vert', 'hori', 'vert', 'hori', 'hori', 'vert']","yes",100,"diamond","no",0,NA,2,"legacy",NA,1024,2,48000,-16,"experiment",5,"odd","red","yes",0,"circle",278188.3145,596001.7721,596001.8209,NA,599393.411,NA,NA,93263.6014,1618.50370000002,516397.5489,93263.6238,625005.8349,628013.418,NA,NA,NA,NA,1618.58399999983,621443.0302,515883.1052,NA,625005.8487,621930.0717,625005.788,"New experiment",19,"[0]","dist_present",56,12,"yes","yes",1680,-2.45063780175598,-40.8984224902127,"more toward","False","R","NR","hp","Left",NA,NA,NA,0,-1,"first",0,"NR","ex"
"59",1464.12650000001,3582.99549999996,56513.6395000008,0,53,"#000000","no",625888.3151,2,"bias","psycho","psycho","psycho",0,"uniform",0,0,1,1,NA,1,0,NA,0,0,1,0,58,58,NA,NA,NA,NA,0,1,1,NA,58,1,58,73.2296414732588,"Fri Jul  9 15:06:23 2021","The main experiment item","yes","red","no","None","diamond",NA,"pinging_target_expectations 3.1.osexp","C:\Users\etp-cp-ping\Desktop\LocalPC-EXP",75,"no","mono","no",18,"no","white","no","yes",1050,NA,0,"psycho",2,1,2,"C:/Users/etp-cp-ping/DATA/subject-5.csv","psycho",1,59,3,"Lentiform Loewenfeld","3.3.8","['hori', 'hori', 'hori', 'vert', 'vert', 'hori', 'vert', 'vert']","no",200,"None","no",0,NA,2,"legacy",NA,1024,2,48000,-16,"experiment",5,"odd","green","no",3,"circle",278188.3145,596001.7721,596001.8209,NA,599393.411,NA,NA,93263.6014,1618.50370000002,516397.5489,93263.6238,628044.0825,631421.4704,NA,NA,NA,NA,1618.58399999983,621443.0302,515883.1052,NA,628044.0965,621930.0717,628044.0326,"New experiment",19,"[0, 92.1008999758872, 119.67709270597875, 144.3031699527047, 160.17954469309146, 168.42258488578653, 168.69393024662008, 162.8983256123441, 152.52049042669643, 142.042107481735, 133.42373123123267, 128.2404566876066, 124.85931076756874, 123.71403101397898, 122.69884057527284, 121.98333573393393, 122.44199575398507, 121.04302812720657, 122.90257938121329, 123.7145783131793, 126.17844100562552, 127.29122664911566, 129.48950055658887, 132.16477981458863, 133.98689512025044, 135.5631073133606, 135.62042137468973, 137.1003282271782, 138.561199179169, 138.46025626842786, 137.6061163230489, 139.08319365869147, 138.68556069791134, 138.5578007385669, 137.9533638876213, 138.00001220703342, 138.8815609737872, 139.28330114739447, 138.40013233685912, 139.04536713279714, 138.44305921400158, 138.74243798016627, 138.5401770929488, 138.82026298433402, 138.46025626842786, 138.20003617944533, 138.36001121218828, 138.42000810945027, 138.02046454353516, 136.90177753373138, 137.4400379199529, 137.7401078376558, 137.36081183130023, 137.8029635040155, 137.84451590980123, 137.8825637693262, 137.2650452196804, 136.62491992721672, 136.6856053038001, 136.92888215980017, 137.41052824105262, 138.48148363082677, 136.04222628119226, 128.96270990823393, 112.67249780978258, 90.52788917379253]","dist_absent",56,49,"yes","yes",1680,10.205862198244,-20.9046724902127,"more toward","False","NR","NR","hp",NA,"Left",NA,NA,-3,NA,"first",0,"R","in"
"60",1381.84340000048,4964.83890000044,57895.4829000013,1,54,"#000000","no",632628.3636,2,"bias","psycho","psycho","psycho",0,"uniform",1,0,1,1,NA,1,0,NA,0,0,1,0,59,59,NA,NA,NA,NA,0,1,1,NA,59,1,59,73.2296414732588,"Fri Jul  9 15:06:23 2021","The main experiment item","yes","green","no","6","circle",NA,"pinging_target_expectations 3.1.osexp","C:\Users\etp-cp-ping\Desktop\LocalPC-EXP",75,"no","mono","no",18,"no","white","no","yes",1050,NA,0,"psycho",3,1,3,"C:/Users/etp-cp-ping/DATA/subject-5.csv","psycho",2,60,4,"Lentiform Loewenfeld","3.3.8","['vert', 'vert', 'hori', 'vert', 'hori', 'hori', 'vert', 'hori']","yes",100,"circles","no",0,NA,2,"legacy",NA,1024,2,48000,-16,"experiment",5,"odd","red","yes",0,"diamond",278188.3145,596001.7721,596001.8209,NA,599393.411,NA,NA,93263.6014,1618.50370000002,516397.5489,93263.6238,631452.0203,634877.3996,NA,NA,NA,NA,1618.58399999983,621443.0302,515883.1052,NA,631452.0345,621930.0717,631451.9699,"New experiment",19,"[0]","dist_present",56,17,"yes","yes",1680,5.90938027053318,-32.0471815263573,"more toward","True","NR","NR","lp","Right",NA,"Right",NA,0,2,"first",3,"NR","ex"
"61",1115.3447000006,6080.18360000104,59010.8276000019,2,55,"#000000","no",635674.4189,2,"bias","psycho","psycho","psycho",0,"uniform",1,0,1,1,NA,1,0,NA,0,0,1,0,60,60,NA,NA,NA,NA,0,1,1,NA,60,1,60,73.2296414732588,"Fri Jul  9 15:06:23 2021","The main experiment item","yes","red","no","7","circle",NA,"pinging_target_expectations 3.1.osexp","C:\Users\etp-cp-ping\Desktop\LocalPC-EXP",75,"no","mono","no",18,"no","white","no","yes",1050,NA,0,"psycho",4,1,4,"C:/Users/etp-cp-ping/DATA/subject-5.csv","psycho",3,61,5,"Lentiform Loewenfeld","3.3.8","['vert', 'vert', 'hori', 'hori', 'hori', 'vert', 'hori', 'vert']","no",200,"None","no",0,NA,2,"legacy",NA,1024,2,48000,-16,"experiment",5,"odd","green","no",2,"diamond",278188.3145,596001.7721,596001.8209,NA,599393.411,NA,NA,93263.6014,1618.50370000002,516397.5489,93263.6238,634908.0649,637869.4129,NA,NA,NA,NA,1618.58399999983,621443.0302,515883.1052,NA,634908.0795,621930.0717,634908.0152,"New experiment",19,"[0, 77.8657969143183, 88.57321388970028, 104.88329003616037, 114.41522628718785, 115.85687150131795, 119.31661750319228, 121.47217569375131, 118.62791547145157, 115.0697397021386, 116.92474062705408, 115.67304949677522, 117.31770428112593, 139.29495601244184, 181.96947922558238, 247.9170024425481, 336.02685250656606, 442.88697264325765, 567.8349231951131, 704.3606116750846, 860.13031900911, 1027.9550984437533, 1153.4656263186328, 1440.1300736388448, 1524.6871439427498]","dist_present",56,38,"yes","no",1680,13.358112198244,-9.20517249021269,"more toward","False","NR","NR","hp",NA,NA,NA,NA,-2,1,"first",0,"NR","in"
"62",981.881400000071,7062.06500000111,59992.709000002,3,56,"#000000","no",635674.4189,2,"bias","psycho","psycho","psycho",0,"uniform",1,0,1,1,NA,1,0,NA,0,0,1,0,61,61,NA,NA,NA,NA,0,1,1,NA,61,1,61,73.2296414732588,"Fri Jul  9 15:06:23 2021","The main experiment item","yes","red","no","1","circle",NA,"pinging_target_expectations 3.1.osexp","C:\Users\etp-cp-ping\Desktop\LocalPC-EXP",75,"no","mono","no",18,"no","white","no","yes",1050,NA,0,"psycho",5,1,5,"C:/Users/etp-cp-ping/DATA/subject-5.csv","psycho",3,62,6,"Lentiform Loewenfeld","3.3.8","['hori', 'vert', 'vert', 'hori', 'vert', 'hori', 'vert', 'hori']","no",200,"None","no",0,NA,2,"legacy",NA,1024,2,48000,-16,"experiment",5,"odd","green","no",3,"diamond",278188.3145,596001.7721,596001.8209,NA,599393.411,NA,NA,93263.6014,1618.50370000002,516397.5489,93263.6238,637900.0621,640685.3923,NA,NA,NA,NA,1618.58399999983,621443.0302,515883.1052,NA,637900.0763,621930.0717,637900.0117,"New experiment",19,"[0, 93.87358267333002, 112.70956831410334, 131.043969503982, 143.20661604957849, 149.31855291336646, 152.1156123368103, 150.30013346510776, 144.93106940173416, 140.2975583984936, 135.77763088531455, 132.08649805620084, 127.06977898174665, 124.88926528723583, 121.17773680212517, 118.8320312371625, 116.7160823197517, 117.39412224010083, 119.64548499662774, 121.83549526009892, 123.10778102748833, 124.73878413540322, 126.14790315038545, 127.20944705646237, 129.68340093296197, 131.30990923454232, 132.51186037351215, 133.29384832016817, 133.875642478107, 132.78513606891394, 132.65266620416838, 132.36542439841483, 132.2925556605674, 131.68828832969058, 131.12475706938278, 131.784714243361, 131.79090398448227, 131.31248826823938, 130.5457180529236, 130.8886677102402, 129.94797234885363, 129.7519901589047, 130.5193217388472, 129.99482969361094, 130.35895389405482, 130.61979091176164, 130.41143493129732, 130.12892787021835, 129.84642234577294, 129.70521326698076, 129.21443593539675, 128.87986839889626, 128.92480495246772, 129.14020842718944, 128.4740067300566, 128.30814024269955, 128.8675932094279, 128.48723506713227, 128.70947469768618, 128.54145926699692, 129.07123790033666, 129.05566477057718, 127.92908926387132, 128.14444974324874, 129.35389026149326, 129.41149278689406, 129.6844168967135, 129.4700737622405, 121.88624377221238, 107.50241569324851, 89.19852055576443]","dist_present",56,42,"yes","yes",1680,18.592612198244,-9.76092249021269,"more toward","False","NR","NR","lp",NA,NA,NA,NA,-3,-1,"first",2,"NR","in"
"63",1097.63060000027,8159.69560000137,61090.3396000022,3,56,"#000000","no",641088.5057,2,"bias","psycho","psycho","psycho",0,"uniform",0,0,1,1,NA,1,0,NA,0,0,1,0,62,62,NA,NA,NA,NA,0,1,1,NA,62,1,62,73.2296414732588,"Fri Jul  9 15:06:23 2021","The main experiment item","yes","red","no","2","circle",NA,"pinging_target_expectations 3.1.osexp","C:\Users\etp-cp-ping\Desktop\LocalPC-EXP",75,"no","mono","no",18,"no","white","no","yes",1050,NA,0,"psycho",6,1,6,"C:/Users/etp-cp-ping/DATA/subject-5.csv","psycho",4,63,7,"Lentiform Loewenfeld","3.3.8","['hori', 'hori', 'vert', 'hori', 'hori', 'vert', 'vert', 'vert']","no",200,"None","no",0,NA,2,"legacy",NA,1024,2,48000,-16,"experiment",5,"odd","green","no",3,"diamond",278188.3145,596001.7721,596001.8209,NA,599393.411,NA,NA,93263.6014,1618.50370000002,516397.5489,93263.6238,640715.9765,643613.4166,NA,NA,NA,NA,1618.58399999983,621443.0302,515883.1052,NA,640715.9908,621930.0717,640715.9258,"New experiment",19,"[0, 116.55901396010653, 174.9382935991533, 245.71235894810897, 326.21892863446055, 408.4786585935279, 492.6282614601586, 588.5415595722621, 683.2185238830646, 776.1184016777673, 875.2246771421155, 976.8970510397094, 1043.7544744617812]","dist_present",56,43,"yes","no",1680,13.517112198244,7.35457750978731,"more away","False","R","NR","lp",NA,NA,NA,NA,-3,-2,"first",3,"NR","in"
"64",1339.45809999935,9499.15370000072,62429.7977000016,3,56,"#000000","no",644448.5674,2,"bias","psycho","psycho","psycho",0,"uniform",0,0,1,1,NA,1,0,NA,0,0,1,0,63,63,NA,NA,NA,NA,0,1,1,NA,63,1,63,73.2296414732588,"Fri Jul  9 15:06:23 2021","The main experiment item","yes","red","no","1","diamond",NA,"pinging_target_expectations 3.1.osexp","C:\Users\etp-cp-ping\Desktop\LocalPC-EXP",75,"no","mono","no",18,"no","white","no","yes",1050,NA,0,"psycho",7,1,7,"C:/Users/etp-cp-ping/DATA/subject-5.csv","psycho",5,64,8,"Lentiform Loewenfeld","3.3.8","['vert', 'vert', 'vert', 'hori', 'hori', 'vert', 'hori', 'hori']","no",200,"None","no",0,NA,2,"legacy",NA,1024,2,48000,-16,"experiment",5,"odd","green","no",6,"circle",278188.3145,596001.7721,596001.8209,NA,599393.411,NA,NA,93263.6014,1618.50370000002,516397.5489,93263.6238,643644.0229,646957.4803,NA,NA,NA,NA,1618.58399999983,621443.0302,515883.1052,NA,643644.0373,621930.0717,643643.9729,"New experiment",19,"[0]","dist_present",56,72,"yes","yes",1680,6.91661219824402,-14.1964224902127,"more toward","False","NR","NR","lp",NA,NA,NA,NA,2,-1,"first",3,"R","in"
"65",758.106099999975,10257.2598000007,63187.9038000015,4,57,"#000000","no",647646.5983,2,"bias","psycho","psycho","psycho",0,"uniform",1,0,1,1,NA,1,0,NA,0,0,1,0,64,64,NA,NA,NA,NA,0,1,1,NA,64,1,64,73.2296414732588,"Fri Jul  9 15:06:23 2021","The main experiment item","yes","red","no","None","circle",NA,"pinging_target_expectations 3.1.osexp","C:\Users\etp-cp-ping\Desktop\LocalPC-EXP",75,"no","mono","no",18,"no","white","no","yes",1050,NA,0,"psycho",8,1,8,"C:/Users/etp-cp-ping/DATA/subject-5.csv","psycho",6,65,9,"Lentiform Loewenfeld","3.3.8","['hori', 'vert', 'vert', 'hori', 'vert', 'hori', 'hori', 'vert']","no",200,"None","no",0,NA,2,"legacy",NA,1024,2,48000,-16,"experiment",5,"odd","green","no",2,"diamond",278188.3145,596001.7721,596001.8209,NA,599393.411,NA,NA,93263.6014,1618.50370000002,516397.5489,93263.6238,646988.7231,649789.3667,NA,NA,NA,NA,1618.58399999983,621443.0302,515883.1052,NA,646988.7376,621930.0717,646988.673199999,"New experiment",19,"[0, 91.09689913349975, 155.27528389625857, 242.10129730999054, 350.24455741667134, 478.5173195888369, 622.222576429965, 777.7585844675024, 948.3030894049648, 1076.8787249600052]","dist_absent",56,39,"yes","no",1680,5.20411219824402,-16.3436724902127,"more toward","False","NR","NR","lp",NA,"Left",NA,"Left",-2,NA,"first",6,"NR","in"
"66",972.024900000193,11229.2847000009,64159.9287000017,5,58,"#000000","no",650250.6328,2,"bias","psycho","psycho","psycho",0,"uniform",1,0,1,1,NA,1,0,NA,0,0,1,0,65,65,NA,NA,NA,NA,0,1,1,NA,65,1,65,73.2296414732588,"Fri Jul  9 15:06:23 2021","The main experiment item","yes","green","no","2","diamond",NA,"pinging_target_expectations 3.1.osexp","C:\Users\etp-cp-ping\Desktop\LocalPC-EXP",75,"no","mono","no",18,"no","white","no","yes",1050,NA,0,"psycho",9,1,9,"C:/Users/etp-cp-ping/DATA/subject-5.csv","psycho",7,66,10,"Lentiform Loewenfeld","3.3.8","['hori', 'vert', 'vert', 'hori', 'vert', 'hori', 'hori', 'vert']","no",200,"None","no",0,NA,2,"legacy",NA,1024,2,48000,-16,"experiment",5,"odd","red","yes",0,"circle",278188.3145,596001.7721,596001.8209,NA,599393.411,NA,NA,93263.6014,1618.50370000002,516397.5489,93263.6238,649819.8437,652557.3708,NA,NA,NA,NA,1618.58399999983,621443.0302,515883.1052,NA,649819.8577,621930.0717,649819.7932,"New experiment",19,"[0, 102.83082772622066, 151.14804800112728, 214.77880445078546, 288.7999918887501, 373.8012698425967, 465.6152900833221, 566.9470248332607, 674.1386708527149, 796.4806670417016, 919.9731944549407, 1016.9438709247087]","dist_present",56,13,"yes","no",1680,3.98236219824402,-9.50067249021269,"more toward","False","NR","NR","lp","Left",NA,"Left",NA,0,-2,"first",2,"NR","ex"
"67",896.911300000269,12126.1960000012,65056.840000002,6,59,"#000000","no",650250.6328,2,"bias","psycho","psycho","psycho",0,"uniform",1,0,1,1,NA,1,0,NA,0,0,1,0,66,66,NA,NA,NA,NA,0,1,1,NA,66,1,66,73.2296414732588,"Fri Jul  9 15:06:23 2021","The main experiment item","yes","green","no","6","diamond",NA,"pinging_target_expectations 3.1.osexp","C:\Users\etp-cp-ping\Desktop\LocalPC-EXP",75,"no","mono","no",18,"no","white","no","yes",1050,NA,0,"psycho",10,1,10,"C:/Users/etp-cp-ping/DATA/subject-5.csv","psycho",7,67,11,"Lentiform Loewenfeld","3.3.8","['vert', 'vert', 'vert', 'hori', 'vert', 'hori', 'hori', 'hori']","no",200,"None","no",0,NA,2,"legacy",NA,1024,2,48000,-16,"experiment",5,"odd","red","no",4,"circle",278188.3145,596001.7721,596001.8209,NA,599393.411,NA,NA,93263.6014,1618.50370000002,516397.5489,93263.6238,652588.1149,655469.3905,NA,NA,NA,NA,1618.58399999983,621443.0302,515883.1052,NA,652588.1296,621930.0717,652588.0661,"New experiment",19,"[0]","dist_present",56,57,"yes","yes",1680,-23.379387801756,-34.2016724902127,"more toward","False","NR","NR","hp","Right",NA,"Right",NA,4,2,"first",0,"NR","in"
"68",1226.75930000062,13352.9553000018,66283.5993000026,7,60,"#000000","no",650250.6328,2,"bias","psycho","psycho","psycho",0,"uniform",1,0,1,1,NA,1,0,NA,0,0,1,0,67,67,NA,NA,NA,NA,0,1,1,NA,67,1,67,73.2296414732588,"Fri Jul  9 15:06:23 2021","The main experiment item","yes","red","no","None","circle",NA,"pinging_target_expectations 3.1.osexp","C:\Users\etp-cp-ping\Desktop\LocalPC-EXP",75,"no","mono","no",18,"no","white","no","yes",1050,NA,0,"psycho",11,1,11,"C:/Users/etp-cp-ping/DATA/subject-5.csv","psycho",7,68,12,"Lentiform Loewenfeld","3.3.8","['hori', 'vert', 'hori', 'hori', 'vert', 'vert', 'vert', 'hori']","no",200,"None","no",0,NA,2,"legacy",NA,1024,2,48000,-16,"experiment",5,"odd","green","yes",0,"diamond",278188.3145,596001.7721,596001.8209,NA,599393.411,NA,NA,93263.6014,1618.50370000002,516397.5489,93263.6238,655500.0229,658781.448,NA,NA,NA,NA,1618.58399999983,621443.0302,515883.1052,NA,655500.0371,621930.0717,655499.9732,"New experiment",19,"[0]","dist_absent",56,19,"yes","yes",1680,-8.28963780175598,-0.918672490212683,"more away","False","NR","NR","lp",NA,NA,NA,NA,0,NA,"first",4,"NR","ex"
"69",1085.1502999994,14438.1056000012,67368.749600002,8,61,"#000000","no",659352.7795,2,"bias","psycho","psycho","psycho",0,"uniform",1,0,1,1,NA,1,0,NA,0,0,1,0,68,68,NA,NA,NA,NA,0,1,1,NA,68,1,68,73.2296414732588,"Fri Jul  9 15:06:23 2021","The main experiment item","yes","green","no","None","diamond",NA,"pinging_target_expectations 3.1.osexp","C:\Users\etp-cp-ping\Desktop\LocalPC-EXP",75,"no","mono","no",18,"no","white","no","yes",1050,NA,0,"psycho",12,1,12,"C:/Users/etp-cp-ping/DATA/subject-5.csv","psycho",8,69,13,"Lentiform Loewenfeld","3.3.8","['hori', 'vert', 'vert', 'hori', 'vert', 'vert', 'hori', 'hori']","yes",100,"circles","no",0,NA,2,"legacy",NA,1024,2,48000,-16,"experiment",5,"odd","red","no",7,"circle",278188.3145,596001.7721,596001.8209,NA,599393.411,NA,NA,93263.6014,1618.50370000002,516397.5489,93263.6238,658812.1824,661757.5332,NA,NA,NA,NA,1618.58399999983,621443.0302,515883.1052,NA,658812.1965,621930.0717,658812.1328,"New experiment",19,"[0]","dist_absent",56,89,"yes","yes",1680,-14.719637801756,-19.3791724902127,"more toward","False","NR","R","hp",NA,"Right",NA,NA,1,NA,"first",0,"NR","in"
"70",829.016800000332,15267.1224000015,68197.7664000024,9,62,"#000000","no",662344.844,2,"bias","psycho","psycho","psycho",0,"uniform",1,0,1,1,NA,1,0,NA,0,0,1,0,69,69,NA,NA,NA,NA,0,1,1,NA,69,1,69,73.2296414732588,"Fri Jul  9 15:06:23 2021","The main experiment item","yes","green","no","None","circle",NA,"pinging_target_expectations 3.1.osexp","C:\Users\etp-cp-ping\Desktop\LocalPC-EXP",75,"no","mono","no",18,"no","white","no","yes",1050,NA,0,"psycho",13,1,13,"C:/Users/etp-cp-ping/DATA/subject-5.csv","psycho",9,70,14,"Lentiform Loewenfeld","3.3.8","['vert', 'hori', 'hori', 'vert', 'hori', 'vert', 'hori', 'vert']","yes",100,"diamond","no",0,NA,2,"legacy",NA,1024,2,48000,-16,"experiment",5,"odd","red","yes",0,"diamond",278188.3145,596001.7721,596001.8209,NA,599393.411,NA,NA,93263.6014,1618.50370000002,516397.5489,93263.6238,661790.2936,664621.4134,NA,NA,NA,NA,1618.58399999983,621443.0302,515883.1052,NA,661790.3082,621930.0717,661790.245,"New experiment",19,"[0, 77.64754354174094, 89.57197155572192, 100.53376997929675, 106.33217407105, 107.64504311680024, 102.67056246545745, 94.91284769316928, 87.69915478776538, 82.50607229369713, 79.02531240052139, 79.397348001234, 82.33020960186202, 89.44588709801381, 96.67763559060236, 93.36217183311064, 91.92106787742874, 107.11603200046285, 147.84214492794428, 208.1302953295963, 280.84282238253695, 366.47522329225706, 456.4477428609893, 553.7572358399644, 654.6975107006127, 761.3843039608012, 876.7565132996061, 961.7140596656556]","dist_absent",56,19,"yes","no",1680,5.37361219824402,-5.88642249021269,"more away","False","NR","R","lp",NA,NA,NA,NA,0,NA,"first",7,"NR","ex"
"71",658.825699999346,15925.9481000009,68856.5921000017,10,63,"#000000","no",665290.8656,2,"bias","psycho","psycho","psycho",0,"uniform",1,0,1,1,NA,1,0,NA,0,0,1,0,70,70,NA,NA,NA,NA,0,1,1,NA,70,1,70,73.2296414732588,"Fri Jul  9 15:06:23 2021","The main experiment item","yes","green","no","1","circle",NA,"pinging_target_expectations 3.1.osexp","C:\Users\etp-cp-ping\Desktop\LocalPC-EXP",75,"no","mono","no",18,"no","white","no","yes",1050,NA,0,"psycho",14,1,14,"C:/Users/etp-cp-ping/DATA/subject-5.csv","psycho",10,71,15,"Lentiform Loewenfeld","3.3.8","['hori', 'hori', 'hori', 'vert', 'hori', 'vert', 'vert', 'vert']","no",200,"None","no",0,NA,2,"legacy",NA,1024,2,48000,-16,"experiment",5,"odd","red","no",6,"diamond",278188.3145,596001.7721,596001.8209,NA,599393.411,NA,NA,93263.6014,1618.50370000002,516397.5489,93263.6238,664652.1775,667101.4069,NA,NA,NA,NA,1618.58399999983,621443.0302,515883.1052,NA,664652.1917,621930.0717,664652.127,"New experiment",19,"[0, 117.0594139071185, 175.11403299913732, 238.2280151701608, 303.4456236843825, 373.14923019237926, 448.9361932152653, 528.487786304887, 609.8014142483919, 692.5817411901522, 780.9901413048889, 873.8257436266182, 896.1386181716088]","dist_present",56,72,"yes","no",1680,13.665362198244,-11.2564224902127,"more toward","False","NR","NR","hp",NA,NA,NA,NA,2,-1,"first",0,"NR","in"
"72",770.820400000084,16696.7685000009,69627.4125000018,11,64,"#000000","no",665290.8656,2,"bias","psycho","psycho","psycho",0,"uniform",1,0,1,1,NA,1,0,NA,0,0,1,0,71,71,NA,NA,NA,NA,0,1,1,NA,71,1,71,73.2296414732588,"Fri Jul  9 15:06:23 2021","The main experiment item","yes","green","no","3","diamond",NA,"pinging_target_expectations 3.1.osexp","C:\Users\etp-cp-ping\Desktop\LocalPC-EXP",75,"no","mono","no",18,"no","white","no","yes",1050,NA,0,"psycho",15,1,15,"C:/Users/etp-cp-ping/DATA/subject-5.csv","psycho",10,72,16,"Lentiform Loewenfeld","3.3.8","['hori', 'vert', 'hori', 'vert', 'hori', 'vert', 'hori', 'vert']","no",200,"None","no",0,NA,2,"legacy",NA,1024,2,48000,-16,"experiment",5,"odd","red","yes",0,"circle",278188.3145,596001.7721,596001.8209,NA,599393.411,NA,NA,93263.6014,1618.50370000002,516397.5489,93263.6238,667132.0727,669949.3606,NA,NA,NA,NA,1618.58399999983,621443.0302,515883.1052,NA,667132.0868,621930.0717,667132.0246,"New experiment",19,"[0]","dist_present",56,14,"yes","yes",1680,-2.21563780175598,-28.5669224902127,"more toward","False","NR","NR","lp","Left",NA,NA,NA,0,-3,"first",6,"NR","ex"
