"","RT","RT_bl","RT_tot","acc_bl","acc_tot","answer_debrief_1","answer_debrief_2","answer_debrief_3","answer_debrief_4","background","bidi","blink_onset","block_cnt","block_type","canvas_backend","clock_backend","color_backend","compensation","coordinates","correct","count_block_loop","count_block_seq","count_block_settings","count_check_session","count_drift_correct","count_end_loop","count_end_seq","count_exp_settings","count_experiment","count_feedback","count_instructions","count_log_variables","count_logger","count_new_inline_script","count_new_pygaze_drift_correct","count_new_pygaze_start_recording","count_new_pygaze_stop_recording","count_pygaze","count_start_recording","count_stop_recording","count_test_location","count_trial","count_trial_loop","count_trial_seq","d_eye","datetime","description","disable_garbage_collection","dist_color","dist_high","dist_loc","dist_shape","empty_column","experiment_file","experiment_path","eye_threshold_length","font_bold","font_family","font_italic","font_size","font_underline","foreground","form_clicks","fullscreen","height","high_loc","high_prob_loc","keyboard_backend","live_row","live_row_block_loop","live_row_trial_loop","logfile","mouse_backend","nr_blinks","nr_trials","nr_trials_bl","opensesame_codename","opensesame_version","orient_list_trial","ping","ping_trigger","ping_type","practice","repeat_cycle","response","round_decimals","sampler_backend","session_nr","sound_buf_size","sound_channels","sound_freq","sound_sample_size","start","subject_nr","subject_parity","target_color","target_high","target_loc","target_shape","time_block_loop","time_block_seq","time_block_settings","time_check_session","time_drift_correct","time_end_loop","time_end_seq","time_exp_settings","time_experiment","time_feedback","time_instructions","time_log_variables","time_logger","time_new_inline_script","time_new_pygaze_drift_correct","time_new_pygaze_start_recording","time_new_pygaze_stop_recording","time_pygaze","time_start_recording","time_stop_recording","time_test_location","time_trial","time_trial_loop","time_trial_seq","title","total_blocks","tracker_dev","trial_type","trials_in_block","trigger","uniform_coordinates","update_blinks","width","x","y","toward","containsNaN","rept","repd","prevtar","pd","nt","pd_c","nt_c","tar_dist","dist_dist","prevHP","eegTar","repteeg","tarcounter"
"1",1175.54129999917,1175.54129999917,1175.54129999917,0,0,"n",1,"['1']","y","#000000","no",244802.1801,1,"neutral","psycho","psycho","psycho",0,"uniform",0,0,0,0,NA,0,0,NA,0,0,0,0,0,0,NA,NA,NA,NA,0,0,0,NA,0,0,0,73.2296414732588,"Mon Aug 16 15:28:25 2021","The main experiment item","yes","green","no","3","diamond",NA,"pinging_target_expectations 3.2.osexp","C:\Users\etp-cp-ping\Desktop\LocalPC-EXP",75,"no","mono","no",18,"no","white","no","yes",1050,NA,100,"psycho",0,0,0,"C:/Users/etp-cp-ping/Desktop/LocalPC-EXP/subject-9.csv","psycho",1,1,1,"Lentiform Loewenfeld","3.3.8","['vert', 'hori', 'vert', 'hori', 'hori', 'vert', 'hori', 'vert']","no",209,"None","yes",0,NA,2,"legacy",NA,1024,2,48000,-16,"experiment",9,"odd","red","no",7,"circle",234999.694800001,235081.0578,235081.098299999,NA,242103.7077,NA,NA,65171.2078,3766.02169999933,NA,65171.2310000003,243485.7173,246328.7927,NA,NA,NA,NA,3766.10110000001,242918.467699999,NA,NA,243485.731999999,243481.368000001,243485.675,"New experiment",19,"[0]","dist_present",56,84,"yes","yes",1680,NA,NA,NA,NA,"NR","NR","lp",NA,NA,NA,NA,NA,NA,"practice",999,"NR","in"
"2",963.200099999085,2138.74139999825,2138.74139999825,1,1,"n",1,"['1']","y","#000000","no",244802.1801,1,"neutral","psycho","psycho","psycho",0,"uniform",1,0,0,0,NA,0,0,NA,0,0,0,0,1,1,NA,NA,NA,NA,0,0,0,NA,1,0,1,73.2296414732588,"Mon Aug 16 15:28:25 2021","The main experiment item","yes","red","no","7","circle",NA,"pinging_target_expectations 3.2.osexp","C:\Users\etp-cp-ping\Desktop\LocalPC-EXP",75,"no","mono","no",18,"no","white","no","yes",1050,NA,100,"psycho",1,0,1,"C:/Users/etp-cp-ping/Desktop/LocalPC-EXP/subject-9.csv","psycho",1,2,2,"Lentiform Loewenfeld","3.3.8","['vert', 'vert', 'vert', 'hori', 'hori', 'vert', 'hori', 'hori']","yes",109,"diamond","yes",0,NA,2,"legacy",NA,1024,2,48000,-16,"experiment",9,"odd","green","no",2,"diamond",234999.694800001,235081.0578,235081.098299999,NA,242103.7077,NA,NA,65171.2078,3766.02169999933,NA,65171.2310000003,246368.7371,249144.8676,NA,NA,NA,NA,3766.10110000001,242918.467699999,NA,NA,246368.751,243481.368000001,246368.688799999,"New experiment",19,"[0]","dist_present",56,38,"yes","yes",1680,NA,NA,NA,NA,"NR","NR","lp",NA,NA,NA,NA,NA,NA,"practice",7,"NR","in"
"3",1034.20650000044,3172.94789999869,3172.94789999869,2,2,"n",1,"['1']","y","#000000","no",244802.1801,1,"neutral","psycho","psycho","psycho",0,"uniform",1,0,0,0,NA,0,0,NA,0,0,0,0,2,2,NA,NA,NA,NA,0,0,0,NA,2,0,2,73.2296414732588,"Mon Aug 16 15:28:25 2021","The main experiment item","yes","green","no","None","diamond",NA,"pinging_target_expectations 3.2.osexp","C:\Users\etp-cp-ping\Desktop\LocalPC-EXP",75,"no","mono","no",18,"no","white","no","yes",1050,NA,100,"psycho",2,0,2,"C:/Users/etp-cp-ping/Desktop/LocalPC-EXP/subject-9.csv","psycho",1,3,3,"Lentiform Loewenfeld","3.3.8","['vert', 'vert', 'hori', 'vert', 'hori', 'vert', 'hori', 'hori']","yes",109,"circles","yes",0,NA,2,"legacy",NA,1024,2,48000,-16,"experiment",9,"odd","red","no",7,"circle",234999.694800001,235081.0578,235081.098299999,NA,242103.7077,NA,NA,65171.2078,3766.02169999933,NA,65171.2310000003,249176.4193,252136.8456,NA,NA,NA,NA,3766.10110000001,242918.467699999,NA,NA,249176.4356,243481.368000001,249176.369299999,"New experiment",19,"[0]","dist_absent",56,89,"yes","yes",1680,NA,NA,NA,NA,"NR","NR","lp",NA,"Right",NA,NA,NA,NA,"practice",2,"NR","in"
"4",1157.31239999877,4330.26029999746,4330.26029999746,3,3,"n",1,"['1']","y","#000000","no",244802.1801,1,"neutral","psycho","psycho","psycho",0,"uniform",1,0,0,0,NA,0,0,NA,0,0,0,0,3,3,NA,NA,NA,NA,0,0,0,NA,3,0,3,73.2296414732588,"Mon Aug 16 15:28:25 2021","The main experiment item","yes","red","no","None","circle",NA,"pinging_target_expectations 3.2.osexp","C:\Users\etp-cp-ping\Desktop\LocalPC-EXP",75,"no","mono","no",18,"no","white","no","yes",1050,NA,100,"psycho",3,0,3,"C:/Users/etp-cp-ping/Desktop/LocalPC-EXP/subject-9.csv","psycho",1,4,4,"Lentiform Loewenfeld","3.3.8","['vert', 'hori', 'vert', 'vert', 'hori', 'hori', 'vert', 'hori']","no",209,"None","yes",0,NA,2,"legacy",NA,1024,2,48000,-16,"experiment",9,"odd","green","no",1,"diamond",234999.694800001,235081.0578,235081.098299999,NA,242103.7077,NA,NA,65171.2078,3766.02169999933,NA,65171.2310000003,252167.9148,255080.7922,NA,NA,NA,NA,3766.10110000001,242918.467699999,NA,NA,252167.9289,243481.368000001,252167.8655,"New experiment",19,"[0]","dist_absent",56,29,"yes","yes",1680,NA,NA,NA,NA,"NR","R","lp",NA,"Left",NA,NA,NA,NA,"practice",7,"NR","in"
"5",953.327100000024,5283.58739999749,5283.58739999749,4,4,"n",1,"['1']","y","#000000","no",244802.1801,1,"neutral","psycho","psycho","psycho",0,"uniform",1,0,0,0,NA,0,0,NA,0,0,0,0,4,4,NA,NA,NA,NA,0,0,0,NA,4,0,4,73.2296414732588,"Mon Aug 16 15:28:25 2021","The main experiment item","yes","red","no","5","circle",NA,"pinging_target_expectations 3.2.osexp","C:\Users\etp-cp-ping\Desktop\LocalPC-EXP",75,"no","mono","no",18,"no","white","no","yes",1050,NA,100,"psycho",4,0,4,"C:/Users/etp-cp-ping/Desktop/LocalPC-EXP/subject-9.csv","psycho",1,5,5,"Lentiform Loewenfeld","3.3.8","['vert', 'hori', 'hori', 'vert', 'vert', 'vert', 'hori', 'hori']","yes",109,"circles","yes",0,NA,2,"legacy",NA,1024,2,48000,-16,"experiment",9,"odd","green","no",6,"diamond",234999.694800001,235081.0578,235081.098299999,NA,242103.7077,NA,NA,65171.2078,3766.02169999933,NA,65171.2310000003,255110.932899999,257880.8061,NA,NA,NA,NA,3766.10110000001,242918.467699999,NA,NA,255110.9468,243481.368000001,255110.8841,"New experiment",19,"[0]","dist_present",56,76,"yes","yes",1680,NA,NA,NA,NA,"NR","NR","lp",NA,NA,NA,NA,NA,NA,"practice",1,"NR","in"
"6",824.166799999162,6107.75419999665,6107.75419999665,5,5,"n",1,"['1']","y","#000000","no",258248.4477,1,"neutral","psycho","psycho","psycho",0,"uniform",1,0,0,0,NA,0,0,NA,0,0,0,0,5,5,NA,NA,NA,NA,0,0,0,NA,5,0,5,73.2296414732588,"Mon Aug 16 15:28:25 2021","The main experiment item","yes","red","no","None","circle",NA,"pinging_target_expectations 3.2.osexp","C:\Users\etp-cp-ping\Desktop\LocalPC-EXP",75,"no","mono","no",18,"no","white","no","yes",1050,NA,100,"psycho",5,0,5,"C:/Users/etp-cp-ping/Desktop/LocalPC-EXP/subject-9.csv","psycho",2,6,6,"Lentiform Loewenfeld","3.3.8","['hori', 'vert', 'hori', 'vert', 'vert', 'vert', 'hori', 'hori']","yes",109,"diamond","yes",0,NA,2,"legacy",NA,1024,2,48000,-16,"experiment",9,"odd","green","no",1,"diamond",234999.694800001,235081.0578,235081.098299999,NA,242103.7077,NA,NA,65171.2078,3766.02169999933,NA,65171.2310000003,257911.1983,260696.8359,NA,NA,NA,NA,3766.10110000001,242918.467699999,NA,NA,257911.2126,243481.368000001,257911.1478,"New experiment",19,"[0]","dist_absent",56,29,"yes","yes",1680,NA,NA,NA,NA,"NR","NR","lp",NA,"Left",NA,NA,NA,NA,"practice",6,"NR","in"
"7",2000.44169999997,8108.19589999662,8108.19589999662,5,5,"n",1,"['1']","y","#000000","no",258248.4477,1,"neutral","psycho","psycho","psycho",0,"uniform",0,0,0,0,NA,0,0,NA,0,0,0,0,6,6,NA,NA,NA,NA,0,0,0,NA,6,0,6,73.2296414732588,"Mon Aug 16 15:28:25 2021","The main experiment item","yes","red","no","4","circle",NA,"pinging_target_expectations 3.2.osexp","C:\Users\etp-cp-ping\Desktop\LocalPC-EXP",75,"no","mono","no",18,"no","white","no","yes",1050,NA,100,"psycho",6,0,6,"C:/Users/etp-cp-ping/Desktop/LocalPC-EXP/subject-9.csv","psycho",2,7,7,"Lentiform Loewenfeld","3.3.8","['hori', 'vert', 'hori', 'hori', 'vert', 'hori', 'vert', 'vert']","yes",109,"diamond","yes",0,NA,2,"legacy",NA,1024,2,48000,-16,"experiment",9,"odd","green","no",5,"diamond",234999.694800001,235081.0578,235081.098299999,NA,242103.7077,NA,NA,65171.2078,3766.02169999933,NA,65171.2310000003,260727.178200001,264847.5309,NA,NA,NA,NA,3766.10110000001,242918.467699999,NA,NA,260727.1927,243481.368000001,260727.1277,"New experiment",19,"[0]","dist_present",56,65,"yes","yes",1680,NA,NA,NA,NA,"NR","NR","lp",NA,"Right",NA,NA,NA,NA,"practice",1,"NR","in"
"8",1331.99289999902,9440.18879999564,9440.18879999564,6,6,"n",1,"['1']","y","#000000","no",258248.4477,1,"neutral","psycho","psycho","psycho",0,"uniform",1,0,0,0,NA,0,0,NA,0,0,0,0,7,7,NA,NA,NA,NA,0,0,0,NA,7,0,7,73.2296414732588,"Mon Aug 16 15:28:25 2021","The main experiment item","yes","green","no","None","diamond",NA,"pinging_target_expectations 3.2.osexp","C:\Users\etp-cp-ping\Desktop\LocalPC-EXP",75,"no","mono","no",18,"no","white","no","yes",1050,NA,100,"psycho",7,0,7,"C:/Users/etp-cp-ping/Desktop/LocalPC-EXP/subject-9.csv","psycho",2,8,8,"Lentiform Loewenfeld","3.3.8","['hori', 'hori', 'vert', 'vert', 'hori', 'vert', 'hori', 'vert']","yes",109,"circles","yes",0,NA,2,"legacy",NA,1024,2,48000,-16,"experiment",9,"odd","red","no",3,"circle",234999.694800001,235081.0578,235081.098299999,NA,242103.7077,NA,NA,65171.2078,3766.02169999933,NA,65171.2310000003,264877.6586,268120.849700001,NA,NA,NA,NA,3766.10110000001,242918.467699999,NA,NA,264877.6729,243481.368000001,264877.6096,"New experiment",19,"[0]","dist_absent",56,49,"yes","yes",1680,NA,NA,NA,NA,"NR","NR","lp",NA,"Left",NA,NA,NA,NA,"practice",5,"NR","in"
"9",1041.96690000029,10482.1556999959,10482.1556999959,6,6,"n",1,"['1']","y","#000000","no",258248.4477,1,"neutral","psycho","psycho","psycho",0,"uniform",0,0,0,0,NA,0,0,NA,0,0,0,0,8,8,NA,NA,NA,NA,0,0,0,NA,8,0,8,73.2296414732588,"Mon Aug 16 15:28:25 2021","The main experiment item","yes","red","no","4","circle",NA,"pinging_target_expectations 3.2.osexp","C:\Users\etp-cp-ping\Desktop\LocalPC-EXP",75,"no","mono","no",18,"no","white","no","yes",1050,NA,100,"psycho",8,0,8,"C:/Users/etp-cp-ping/Desktop/LocalPC-EXP/subject-9.csv","psycho",2,9,9,"Lentiform Loewenfeld","3.3.8","['hori', 'hori', 'vert', 'hori', 'vert', 'vert', 'vert', 'hori']","no",209,"None","yes",0,NA,2,"legacy",NA,1024,2,48000,-16,"experiment",9,"odd","green","no",2,"diamond",234999.694800001,235081.0578,235081.098299999,NA,242103.7077,NA,NA,65171.2078,3766.02169999933,NA,65171.2310000003,268151.154200001,271048.754199999,NA,NA,NA,NA,3766.10110000001,242918.467699999,NA,NA,268151.1684,243481.368000001,268151.1049,"New experiment",19,"[0]","dist_present",56,35,"yes","yes",1680,NA,NA,NA,NA,"NR","NR","lp",NA,"Left",NA,"Left",NA,NA,"practice",3,"NR","in"
"10",1566.75509999879,12048.9107999947,12048.9107999947,7,7,"n",1,"['1']","y","#000000","no",258248.4477,1,"neutral","psycho","psycho","psycho",0,"uniform",1,0,0,0,NA,0,0,NA,0,0,0,0,9,9,NA,NA,NA,NA,0,0,0,NA,9,0,9,73.2296414732588,"Mon Aug 16 15:28:25 2021","The main experiment item","yes","red","no","None","diamond",NA,"pinging_target_expectations 3.2.osexp","C:\Users\etp-cp-ping\Desktop\LocalPC-EXP",75,"no","mono","no",18,"no","white","no","yes",1050,NA,100,"psycho",9,0,9,"C:/Users/etp-cp-ping/Desktop/LocalPC-EXP/subject-9.csv","psycho",2,10,10,"Lentiform Loewenfeld","3.3.8","['vert', 'vert', 'vert', 'vert', 'hori', 'hori', 'hori', 'hori']","yes",109,"diamond","yes",0,NA,2,"legacy",NA,1024,2,48000,-16,"experiment",9,"odd","green","no",0,"circle",234999.694800001,235081.0578,235081.098299999,NA,242103.7077,NA,NA,65171.2078,3766.02169999933,NA,65171.2310000003,271079.1123,274504.864500001,NA,NA,NA,NA,3766.10110000001,242918.467699999,NA,NA,271079.126500001,243481.368000001,271079.0631,"New experiment",19,"[0]","dist_absent",56,19,"yes","yes",1680,NA,NA,NA,NA,"NR","NR","lp",NA,NA,NA,NA,NA,NA,"practice",2,"NR","in"
"11",1827.17720000073,13876.0879999954,13876.0879999954,8,8,"n",1,"['1']","y","#000000","no",258248.4477,1,"neutral","psycho","psycho","psycho",0,"uniform",1,0,0,0,NA,0,0,NA,0,0,0,0,10,10,NA,NA,NA,NA,0,0,0,NA,10,0,10,73.2296414732588,"Mon Aug 16 15:28:25 2021","The main experiment item","yes","green","no","0","diamond",NA,"pinging_target_expectations 3.2.osexp","C:\Users\etp-cp-ping\Desktop\LocalPC-EXP",75,"no","mono","no",18,"no","white","no","yes",1050,NA,100,"psycho",10,0,10,"C:/Users/etp-cp-ping/Desktop/LocalPC-EXP/subject-9.csv","psycho",2,11,11,"Lentiform Loewenfeld","3.3.8","['vert', 'vert', 'hori', 'vert', 'vert', 'hori', 'hori', 'hori']","yes",109,"circles","yes",0,NA,2,"legacy",NA,1024,2,48000,-16,"experiment",9,"odd","red","no",6,"circle",234999.694800001,235081.0578,235081.098299999,NA,242103.7077,NA,NA,65171.2078,3766.02169999933,NA,65171.2310000003,274535.2413,278360.7859,NA,NA,NA,NA,3766.10110000001,242918.467699999,NA,NA,274535.2556,243481.368000001,274535.191999999,"New experiment",19,"[0]","dist_present",56,71,"yes","yes",1680,NA,NA,NA,NA,"NR","NR","lp",NA,"Right",NA,"Right",NA,NA,"practice",0,"NR","in"
"12",1090.63620000053,14966.724199996,14966.724199996,9,9,"n",1,"['1']","y","#000000","no",258248.4477,1,"neutral","psycho","psycho","psycho",0,"uniform",1,0,0,0,NA,0,0,NA,0,0,0,0,11,11,NA,NA,NA,NA,0,0,0,NA,11,0,11,73.2296414732588,"Mon Aug 16 15:28:25 2021","The main experiment item","yes","red","no","None","diamond",NA,"pinging_target_expectations 3.2.osexp","C:\Users\etp-cp-ping\Desktop\LocalPC-EXP",75,"no","mono","no",18,"no","white","no","yes",1050,NA,100,"psycho",11,0,11,"C:/Users/etp-cp-ping/Desktop/LocalPC-EXP/subject-9.csv","psycho",2,12,12,"Lentiform Loewenfeld","3.3.8","['vert', 'hori', 'hori', 'vert', 'vert', 'hori', 'vert', 'hori']","no",209,"None","yes",0,NA,2,"legacy",NA,1024,2,48000,-16,"experiment",9,"odd","green","no",3,"circle",234999.694800001,235081.0578,235081.098299999,NA,242103.7077,NA,NA,65171.2078,3766.02169999933,NA,65171.2310000003,278391.1525,281432.8037,NA,NA,NA,NA,3766.10110000001,242918.467699999,NA,NA,278391.1665,243481.368000001,278391.1032,"New experiment",19,"[0]","dist_absent",56,49,"yes","yes",1680,NA,NA,NA,NA,"NR","NR","lp",NA,"Left",NA,NA,NA,NA,"practice",6,"NR","in"
"13",1444.83729999955,16411.5614999955,16411.5614999955,10,10,"n",1,"['1']","y","#000000","no",258248.4477,1,"neutral","psycho","psycho","psycho",0,"uniform",1,0,0,0,NA,0,0,NA,0,0,0,0,12,12,NA,NA,NA,NA,0,0,0,NA,12,0,12,73.2296414732588,"Mon Aug 16 15:28:25 2021","The main experiment item","yes","green","no","6","diamond",NA,"pinging_target_expectations 3.2.osexp","C:\Users\etp-cp-ping\Desktop\LocalPC-EXP",75,"no","mono","no",18,"no","white","no","yes",1050,NA,100,"psycho",12,0,12,"C:/Users/etp-cp-ping/Desktop/LocalPC-EXP/subject-9.csv","psycho",2,13,13,"Lentiform Loewenfeld","3.3.8","['hori', 'hori', 'vert', 'hori', 'vert', 'hori', 'vert', 'vert']","no",209,"None","yes",0,NA,2,"legacy",NA,1024,2,48000,-16,"experiment",9,"odd","red","no",5,"circle",234999.694800001,235081.0578,235081.098299999,NA,242103.7077,NA,NA,65171.2078,3766.02169999933,NA,65171.2310000003,281463.0368,284776.8182,NA,NA,NA,NA,3766.10110000001,242918.467699999,NA,NA,281463.051000001,243481.368000001,281462.987299999,"New experiment",19,"[0]","dist_present",56,67,"yes","yes",1680,NA,NA,NA,NA,"NR","NR","lp",NA,NA,NA,NA,NA,NA,"practice",3,"NR","in"
"14",2000.16739999951,18411.728899995,18411.728899995,10,10,"n",1,"['1']","y","#000000","no",258248.4477,1,"neutral","psycho","psycho","psycho",0,"uniform",0,0,0,0,NA,0,0,NA,0,0,0,0,13,13,NA,NA,NA,NA,0,0,0,NA,13,0,13,73.2296414732588,"Mon Aug 16 15:28:25 2021","The main experiment item","yes","green","no","7","circle",NA,"pinging_target_expectations 3.2.osexp","C:\Users\etp-cp-ping\Desktop\LocalPC-EXP",75,"no","mono","no",18,"no","white","no","yes",1050,NA,100,"psycho",13,0,13,"C:/Users/etp-cp-ping/Desktop/LocalPC-EXP/subject-9.csv","psycho",2,14,14,"Lentiform Loewenfeld","3.3.8","['hori', 'hori', 'vert', 'vert', 'vert', 'vert', 'hori', 'hori']","yes",109,"diamond","yes",0,NA,2,"legacy",NA,1024,2,48000,-16,"experiment",9,"odd","red","no",5,"diamond",234999.694800001,235081.0578,235081.098299999,NA,242103.7077,NA,NA,65171.2078,3766.02169999933,NA,65171.2310000003,284807.0816,288718.3998,NA,NA,NA,NA,3766.10110000001,242918.467699999,NA,NA,284807.0955,243481.368000001,284807.0319,"New experiment",19,"[0]","dist_present",56,68,"yes","yes",1680,NA,NA,NA,NA,"R","NR","lp",NA,NA,NA,NA,NA,NA,"practice",5,"NR","in"
"15",840.185600000026,19251.9144999951,19251.9144999951,11,11,"n",1,"['1']","y","#000000","no",258248.4477,1,"neutral","psycho","psycho","psycho",0,"uniform",1,0,0,0,NA,0,0,NA,0,0,0,0,14,14,NA,NA,NA,NA,0,0,0,NA,14,0,14,73.2296414732588,"Mon Aug 16 15:28:25 2021","The main experiment item","yes","red","no","None","circle",NA,"pinging_target_expectations 3.2.osexp","C:\Users\etp-cp-ping\Desktop\LocalPC-EXP",75,"no","mono","no",18,"no","white","no","yes",1050,NA,100,"psycho",14,0,14,"C:/Users/etp-cp-ping/Desktop/LocalPC-EXP/subject-9.csv","psycho",2,15,15,"Lentiform Loewenfeld","3.3.8","['vert', 'hori', 'vert', 'vert', 'hori', 'vert', 'hori', 'hori']","no",209,"None","yes",0,NA,2,"legacy",NA,1024,2,48000,-16,"experiment",9,"odd","green","no",1,"diamond",234999.694800001,235081.0578,235081.098299999,NA,242103.7077,NA,NA,65171.2078,3766.02169999933,NA,65171.2310000003,288748.887100001,291560.759599999,NA,NA,NA,NA,3766.10110000001,242918.467699999,NA,NA,288748.9011,243481.368000001,288748.8381,"New experiment",19,"[0]","dist_absent",56,29,"yes","yes",1680,NA,NA,NA,NA,"NR","NR","lp",NA,"Left",NA,NA,NA,NA,"practice",5,"R","in"
"16",1242.88470000104,20494.7991999961,20494.7991999961,11,11,"n",1,"['1']","y","#000000","no",258248.4477,1,"neutral","psycho","psycho","psycho",0,"uniform",0,0,0,0,NA,0,0,NA,0,0,0,0,15,15,NA,NA,NA,NA,0,0,0,NA,15,0,15,73.2296414732588,"Mon Aug 16 15:28:25 2021","The main experiment item","yes","green","no","4","diamond",NA,"pinging_target_expectations 3.2.osexp","C:\Users\etp-cp-ping\Desktop\LocalPC-EXP",75,"no","mono","no",18,"no","white","no","yes",1050,NA,100,"psycho",15,0,15,"C:/Users/etp-cp-ping/Desktop/LocalPC-EXP/subject-9.csv","psycho",2,16,16,"Lentiform Loewenfeld","3.3.8","['hori', 'vert', 'vert', 'hori', 'hori', 'vert', 'vert', 'hori']","yes",109,"circles","yes",0,NA,2,"legacy",NA,1024,2,48000,-16,"experiment",9,"odd","red","no",0,"circle",234999.694800001,235081.0578,235081.098299999,NA,242103.7077,NA,NA,65171.2078,3766.02169999933,NA,65171.2310000003,291591.0986,294648.744599999,NA,NA,NA,NA,3766.10110000001,242918.467699999,NA,NA,291591.112800001,243481.368000001,291591.047899999,"New experiment",19,"[0]","dist_present",56,15,"yes","yes",1680,NA,NA,NA,NA,"NR","NR","lp",NA,NA,NA,NA,NA,NA,"practice",1,"NR","in"
"17",1200.14569999877,21694.9448999949,21694.9448999949,12,12,"n",1,"['1']","y","#000000","no",258248.4477,1,"neutral","psycho","psycho","psycho",0,"uniform",1,0,0,0,NA,0,0,NA,0,0,0,0,16,16,NA,NA,NA,NA,0,0,0,NA,16,0,16,73.2296414732588,"Mon Aug 16 15:28:25 2021","The main experiment item","yes","red","no","None","circle",NA,"pinging_target_expectations 3.2.osexp","C:\Users\etp-cp-ping\Desktop\LocalPC-EXP",75,"no","mono","no",18,"no","white","no","yes",1050,NA,100,"psycho",16,0,16,"C:/Users/etp-cp-ping/Desktop/LocalPC-EXP/subject-9.csv","psycho",2,17,17,"Lentiform Loewenfeld","3.3.8","['hori', 'hori', 'hori', 'vert', 'vert', 'hori', 'vert', 'vert']","yes",109,"diamond","yes",0,NA,2,"legacy",NA,1024,2,48000,-16,"experiment",9,"odd","green","no",1,"diamond",234999.694800001,235081.0578,235081.098299999,NA,242103.7077,NA,NA,65171.2078,3766.02169999933,NA,65171.2310000003,294679.0936,297768.757399999,NA,NA,NA,NA,3766.10110000001,242918.467699999,NA,NA,294679.1077,243481.368000001,294679.0454,"New experiment",19,"[0]","dist_absent",56,29,"yes","yes",1680,NA,NA,NA,NA,"NR","NR","lp",NA,"Left",NA,NA,NA,NA,"practice",0,"NR","in"
"18",1160.43370000081,22855.3785999957,22855.3785999957,13,13,"n",1,"['1']","y","#000000","no",258248.4477,1,"neutral","psycho","psycho","psycho",0,"uniform",1,0,0,0,NA,0,0,NA,0,0,0,0,17,17,NA,NA,NA,NA,0,0,0,NA,17,0,17,73.2296414732588,"Mon Aug 16 15:28:25 2021","The main experiment item","yes","red","no","None","diamond",NA,"pinging_target_expectations 3.2.osexp","C:\Users\etp-cp-ping\Desktop\LocalPC-EXP",75,"no","mono","no",18,"no","white","no","yes",1050,NA,100,"psycho",17,0,17,"C:/Users/etp-cp-ping/Desktop/LocalPC-EXP/subject-9.csv","psycho",2,18,18,"Lentiform Loewenfeld","3.3.8","['vert', 'vert', 'hori', 'hori', 'hori', 'hori', 'vert', 'vert']","yes",109,"diamond","yes",0,NA,2,"legacy",NA,1024,2,48000,-16,"experiment",9,"odd","green","no",6,"circle",234999.694800001,235081.0578,235081.098299999,NA,242103.7077,NA,NA,65171.2078,3766.02169999933,NA,65171.2310000003,297799.062300001,300968.7395,NA,NA,NA,NA,3766.10110000001,242918.467699999,NA,NA,297799.0763,243481.368000001,297799.0118,"New experiment",19,"[0]","dist_absent",56,79,"yes","yes",1680,NA,NA,NA,NA,"NR","R","lp",NA,"Right",NA,"Right",NA,NA,"practice",1,"NR","in"
"19",1185.4954999999,24040.8740999956,24040.8740999956,14,14,"n",1,"['1']","y","#000000","no",258248.4477,1,"neutral","psycho","psycho","psycho",0,"uniform",1,0,0,0,NA,0,0,NA,0,0,0,0,18,18,NA,NA,NA,NA,0,0,0,NA,18,0,18,73.2296414732588,"Mon Aug 16 15:28:25 2021","The main experiment item","yes","red","no","5","diamond",NA,"pinging_target_expectations 3.2.osexp","C:\Users\etp-cp-ping\Desktop\LocalPC-EXP",75,"no","mono","no",18,"no","white","no","yes",1050,NA,100,"psycho",18,0,18,"C:/Users/etp-cp-ping/Desktop/LocalPC-EXP/subject-9.csv","psycho",2,19,19,"Lentiform Loewenfeld","3.3.8","['hori', 'hori', 'vert', 'vert', 'vert', 'vert', 'hori', 'hori']","no",209,"None","yes",0,NA,2,"legacy",NA,1024,2,48000,-16,"experiment",9,"odd","green","no",2,"circle",234999.694800001,235081.0578,235081.098299999,NA,242103.7077,NA,NA,65171.2078,3766.02169999933,NA,65171.2310000003,300999.4771,303912.790300001,NA,NA,NA,NA,3766.10110000001,242918.467699999,NA,NA,300999.4909,243481.368000001,300999.427799999,"New experiment",19,"[0]","dist_present",56,36,"yes","yes",1680,NA,NA,NA,NA,"NR","NR","lp",NA,NA,NA,NA,NA,NA,"practice",6,"NR","in"
"20",1242.9135000002,25283.7875999958,25283.7875999958,14,14,"n",1,"['1']","y","#000000","no",258248.4477,1,"neutral","psycho","psycho","psycho",0,"uniform",0,0,0,0,NA,0,0,NA,0,0,0,0,19,19,NA,NA,NA,NA,0,0,0,NA,19,0,19,73.2296414732588,"Mon Aug 16 15:28:25 2021","The main experiment item","yes","red","no","None","circle",NA,"pinging_target_expectations 3.2.osexp","C:\Users\etp-cp-ping\Desktop\LocalPC-EXP",75,"no","mono","no",18,"no","white","no","yes",1050,NA,100,"psycho",19,0,19,"C:/Users/etp-cp-ping/Desktop/LocalPC-EXP/subject-9.csv","psycho",2,20,20,"Lentiform Loewenfeld","3.3.8","['vert', 'vert', 'hori', 'vert', 'hori', 'hori', 'hori', 'vert']","no",209,"None","yes",0,NA,2,"legacy",NA,1024,2,48000,-16,"experiment",9,"odd","green","no",7,"diamond",234999.694800001,235081.0578,235081.098299999,NA,242103.7077,NA,NA,65171.2078,3766.02169999933,NA,65171.2310000003,303943.102900001,307208.7469,NA,NA,NA,NA,3766.10110000001,242918.467699999,NA,NA,303943.1171,243481.368000001,303943.0538,"New experiment",19,"[0]","dist_absent",56,89,"yes","yes",1680,NA,NA,NA,NA,"NR","NR","lp",NA,"Right",NA,NA,NA,NA,"practice",2,"NR","in"
"21",1311.19080000097,26594.9783999968,26594.9783999968,15,15,"n",1,"['1']","y","#000000","no",307804.380199999,1,"neutral","psycho","psycho","psycho",0,"uniform",1,0,0,0,NA,0,0,NA,0,0,0,0,20,20,NA,NA,NA,NA,0,0,0,NA,20,0,20,73.2296414732588,"Mon Aug 16 15:28:25 2021","The main experiment item","yes","red","no","None","circle",NA,"pinging_target_expectations 3.2.osexp","C:\Users\etp-cp-ping\Desktop\LocalPC-EXP",75,"no","mono","no",18,"no","white","no","yes",1050,NA,100,"psycho",20,0,20,"C:/Users/etp-cp-ping/Desktop/LocalPC-EXP/subject-9.csv","psycho",3,21,21,"Lentiform Loewenfeld","3.3.8","['hori', 'vert', 'hori', 'vert', 'hori', 'vert', 'hori', 'vert']","yes",109,"circles","yes",0,NA,2,"legacy",NA,1024,2,48000,-16,"experiment",9,"odd","green","no",0,"diamond",234999.694800001,235081.0578,235081.098299999,NA,242103.7077,NA,NA,65171.2078,3766.02169999933,NA,65171.2310000003,307239.0516,310360.758299999,NA,NA,NA,NA,3766.10110000001,242918.467699999,NA,NA,307239.065600001,243481.368000001,307239.0027,"New experiment",19,"[0]","dist_absent",56,19,"yes","yes",1680,NA,NA,NA,NA,"NR","R","lp",NA,NA,NA,NA,NA,NA,"practice",7,"NR","in"
"22",1605.90550000052,28200.8838999973,28200.8838999973,15,15,"n",1,"['1']","y","#000000","no",307804.380199999,1,"neutral","psycho","psycho","psycho",0,"uniform",0,0,0,0,NA,0,0,NA,0,0,0,0,21,21,NA,NA,NA,NA,0,0,0,NA,21,0,21,73.2296414732588,"Mon Aug 16 15:28:25 2021","The main experiment item","yes","green","no","5","diamond",NA,"pinging_target_expectations 3.2.osexp","C:\Users\etp-cp-ping\Desktop\LocalPC-EXP",75,"no","mono","no",18,"no","white","no","yes",1050,NA,100,"psycho",21,0,21,"C:/Users/etp-cp-ping/Desktop/LocalPC-EXP/subject-9.csv","psycho",3,22,22,"Lentiform Loewenfeld","3.3.8","['vert', 'hori', 'hori', 'vert', 'vert', 'hori', 'hori', 'vert']","no",209,"None","yes",0,NA,2,"legacy",NA,1024,2,48000,-16,"experiment",9,"odd","red","no",2,"circle",234999.694800001,235081.0578,235081.098299999,NA,242103.7077,NA,NA,65171.2078,3766.02169999933,NA,65171.2310000003,310391.0032,313960.7141,NA,NA,NA,NA,3766.10110000001,242918.467699999,NA,NA,310391.0175,243481.368000001,310390.953099999,"New experiment",19,"[0]","dist_present",56,36,"yes","yes",1680,NA,NA,NA,NA,"NR","NR","lp",NA,NA,NA,NA,NA,NA,"practice",0,"NR","in"
"23",1256.48560000077,29457.3694999981,29457.3694999981,16,16,"n",1,"['1']","y","#000000","no",314524.5438,1,"neutral","psycho","psycho","psycho",0,"uniform",1,0,0,0,NA,0,0,NA,0,0,0,0,22,22,NA,NA,NA,NA,0,0,0,NA,22,0,22,73.2296414732588,"Mon Aug 16 15:28:25 2021","The main experiment item","yes","red","no","None","diamond",NA,"pinging_target_expectations 3.2.osexp","C:\Users\etp-cp-ping\Desktop\LocalPC-EXP",75,"no","mono","no",18,"no","white","no","yes",1050,NA,100,"psycho",22,0,22,"C:/Users/etp-cp-ping/Desktop/LocalPC-EXP/subject-9.csv","psycho",4,23,23,"Lentiform Loewenfeld","3.3.8","['hori', 'hori', 'vert', 'hori', 'vert', 'hori', 'vert', 'vert']","yes",109,"circles","yes",0,NA,2,"legacy",NA,1024,2,48000,-16,"experiment",9,"odd","green","no",4,"circle",234999.694800001,235081.0578,235081.098299999,NA,242103.7077,NA,NA,65171.2078,3766.02169999933,NA,65171.2310000003,313992.0932,317160.7991,NA,NA,NA,NA,3766.10110000001,242918.467699999,NA,NA,313992.107399999,243481.368000001,313992.0437,"New experiment",19,"[0]","dist_absent",56,59,"yes","yes",1680,NA,NA,NA,NA,"NR","NR","lp",NA,NA,NA,NA,NA,NA,"practice",2,"NR","in"
"24",1592.90540000075,31050.2748999988,31050.2748999988,17,17,"n",1,"['1']","y","#000000","no",317814.577200001,1,"neutral","psycho","psycho","psycho",0,"uniform",1,0,0,0,NA,0,0,NA,0,0,0,0,23,23,NA,NA,NA,NA,0,0,0,NA,23,0,23,73.2296414732588,"Mon Aug 16 15:28:25 2021","The main experiment item","yes","green","no","1","diamond",NA,"pinging_target_expectations 3.2.osexp","C:\Users\etp-cp-ping\Desktop\LocalPC-EXP",75,"no","mono","no",18,"no","white","no","yes",1050,NA,100,"psycho",23,0,23,"C:/Users/etp-cp-ping/Desktop/LocalPC-EXP/subject-9.csv","psycho",5,24,24,"Lentiform Loewenfeld","3.3.8","['hori', 'hori', 'hori', 'vert', 'hori', 'vert', 'vert', 'vert']","yes",109,"circles","yes",0,NA,2,"legacy",NA,1024,2,48000,-16,"experiment",9,"odd","red","no",4,"circle",234999.694800001,235081.0578,235081.098299999,NA,242103.7077,NA,NA,65171.2078,3766.02169999933,NA,65171.2310000003,317191.169399999,320792.766099999,NA,NA,NA,NA,3766.10110000001,242918.467699999,NA,NA,317191.1836,243481.368000001,317191.1193,"New experiment",19,"[0]","dist_present",56,52,"yes","yes",1680,NA,NA,NA,NA,"R","NR","lp","Left",NA,NA,NA,NA,NA,"practice",4,"NR","in"
"25",1295.32819999987,32345.6030999987,32345.6030999987,18,18,"n",1,"['1']","y","#000000","no",317814.577200001,1,"neutral","psycho","psycho","psycho",0,"uniform",1,0,0,0,NA,0,0,NA,0,0,0,0,24,24,NA,NA,NA,NA,0,0,0,NA,24,0,24,73.2296414732588,"Mon Aug 16 15:28:25 2021","The main experiment item","yes","red","no","1","diamond",NA,"pinging_target_expectations 3.2.osexp","C:\Users\etp-cp-ping\Desktop\LocalPC-EXP",75,"no","mono","no",18,"no","white","no","yes",1050,NA,100,"psycho",24,0,24,"C:/Users/etp-cp-ping/Desktop/LocalPC-EXP/subject-9.csv","psycho",5,25,25,"Lentiform Loewenfeld","3.3.8","['vert', 'hori', 'hori', 'hori', 'vert', 'vert', 'hori', 'vert']","yes",109,"circles","yes",0,NA,2,"legacy",NA,1024,2,48000,-16,"experiment",9,"odd","green","no",3,"circle",234999.694800001,235081.0578,235081.098299999,NA,242103.7077,NA,NA,65171.2078,3766.02169999933,NA,65171.2310000003,320823.084399999,323800.720900001,NA,NA,NA,NA,3766.10110000001,242918.467699999,NA,NA,320823.0986,243481.368000001,320823.035699999,"New experiment",19,"[0]","dist_present",56,42,"yes","yes",1680,NA,NA,NA,NA,"NR","R","lp",NA,NA,NA,NA,NA,NA,"practice",4,"R","in"
"26",1375.80410000012,33721.4071999988,33721.4071999988,19,19,"n",1,"['1']","y","#000000","no",317814.577200001,1,"neutral","psycho","psycho","psycho",0,"uniform",1,0,0,0,NA,0,0,NA,0,0,0,0,25,25,NA,NA,NA,NA,0,0,0,NA,25,0,25,73.2296414732588,"Mon Aug 16 15:28:25 2021","The main experiment item","yes","green","no","6","circle",NA,"pinging_target_expectations 3.2.osexp","C:\Users\etp-cp-ping\Desktop\LocalPC-EXP",75,"no","mono","no",18,"no","white","no","yes",1050,NA,100,"psycho",25,0,25,"C:/Users/etp-cp-ping/Desktop/LocalPC-EXP/subject-9.csv","psycho",5,26,26,"Lentiform Loewenfeld","3.3.8","['hori', 'hori', 'vert', 'vert', 'hori', 'hori', 'vert', 'vert']","no",209,"None","yes",0,NA,2,"legacy",NA,1024,2,48000,-16,"experiment",9,"odd","red","no",7,"diamond",234999.694800001,235081.0578,235081.098299999,NA,242103.7077,NA,NA,65171.2078,3766.02169999933,NA,65171.2310000003,323831.2585,327160.731800001,NA,NA,NA,NA,3766.10110000001,242918.467699999,NA,NA,323831.272899999,243481.368000001,323831.206299999,"New experiment",19,"[0]","dist_present",56,87,"yes","yes",1680,NA,NA,NA,NA,"NR","NR","lp",NA,NA,NA,NA,NA,NA,"practice",3,"NR","in"
"27",949.441099999589,34670.8482999984,34670.8482999984,20,20,"n",1,"['1']","y","#000000","no",327458.750100001,1,"neutral","psycho","psycho","psycho",0,"uniform",1,0,0,0,NA,0,0,NA,0,0,0,0,26,26,NA,NA,NA,NA,0,0,0,NA,26,0,26,73.2296414732588,"Mon Aug 16 15:28:25 2021","The main experiment item","yes","red","no","5","circle",NA,"pinging_target_expectations 3.2.osexp","C:\Users\etp-cp-ping\Desktop\LocalPC-EXP",75,"no","mono","no",18,"no","white","no","yes",1050,NA,100,"psycho",26,0,26,"C:/Users/etp-cp-ping/Desktop/LocalPC-EXP/subject-9.csv","psycho",6,27,27,"Lentiform Loewenfeld","3.3.8","['hori', 'hori', 'vert', 'vert', 'hori', 'vert', 'vert', 'hori']","yes",109,"circles","yes",0,NA,2,"legacy",NA,1024,2,48000,-16,"experiment",9,"odd","green","no",2,"diamond",234999.694800001,235081.0578,235081.098299999,NA,242103.7077,NA,NA,65171.2078,3766.02169999933,NA,65171.2310000003,327190.9996,329992.7393,NA,NA,NA,NA,3766.10110000001,242918.467699999,NA,NA,327191.0138,243481.368000001,327190.949100001,"New experiment",19,"[0]","dist_present",56,36,"yes","yes",1680,NA,NA,NA,NA,"NR","NR","lp",NA,NA,NA,NA,NA,NA,"practice",7,"NR","in"
"28",1067.46810000006,35738.3163999984,35738.3163999984,21,21,"n",1,"['1']","y","#000000","no",327458.750100001,1,"neutral","psycho","psycho","psycho",0,"uniform",1,0,0,0,NA,0,0,NA,0,0,0,0,27,27,NA,NA,NA,NA,0,0,0,NA,27,0,27,73.2296414732588,"Mon Aug 16 15:28:25 2021","The main experiment item","yes","green","no","0","circle",NA,"pinging_target_expectations 3.2.osexp","C:\Users\etp-cp-ping\Desktop\LocalPC-EXP",75,"no","mono","no",18,"no","white","no","yes",1050,NA,100,"psycho",27,0,27,"C:/Users/etp-cp-ping/Desktop/LocalPC-EXP/subject-9.csv","psycho",6,28,28,"Lentiform Loewenfeld","3.3.8","['hori', 'vert', 'hori', 'vert', 'vert', 'vert', 'hori', 'hori']","no",209,"None","yes",0,NA,2,"legacy",NA,1024,2,48000,-16,"experiment",9,"odd","red","no",4,"diamond",234999.694800001,235081.0578,235081.098299999,NA,242103.7077,NA,NA,65171.2078,3766.02169999933,NA,65171.2310000003,330023.186300001,333016.756200001,NA,NA,NA,NA,3766.10110000001,242918.467699999,NA,NA,330023.2008,243481.368000001,330023.137300001,"New experiment",19,"[0]","dist_present",56,51,"yes","yes",1680,NA,NA,NA,NA,"NR","NR","lp",NA,NA,NA,NA,NA,NA,"practice",2,"NR","in"
"29",664.537099999492,36402.8534999979,36402.8534999979,22,22,"n",1,"['1']","y","#000000","no",327458.750100001,1,"neutral","psycho","psycho","psycho",0,"uniform",1,0,0,0,NA,0,0,NA,0,0,0,0,28,28,NA,NA,NA,NA,0,0,0,NA,28,0,28,73.2296414732588,"Mon Aug 16 15:28:25 2021","The main experiment item","yes","green","no","None","circle",NA,"pinging_target_expectations 3.2.osexp","C:\Users\etp-cp-ping\Desktop\LocalPC-EXP",75,"no","mono","no",18,"no","white","no","yes",1050,NA,100,"psycho",28,0,28,"C:/Users/etp-cp-ping/Desktop/LocalPC-EXP/subject-9.csv","psycho",6,29,29,"Lentiform Loewenfeld","3.3.8","['vert', 'vert', 'hori', 'hori', 'vert', 'hori', 'vert', 'hori']","yes",109,"diamond","yes",0,NA,2,"legacy",NA,1024,2,48000,-16,"experiment",9,"odd","red","no",4,"diamond",234999.694800001,235081.0578,235081.098299999,NA,242103.7077,NA,NA,65171.2078,3766.02169999933,NA,65171.2310000003,333047.201400001,335528.6461,NA,NA,NA,NA,3766.10110000001,242918.467699999,NA,NA,333047.215799999,243481.368000001,333047.151799999,"New experiment",19,"[0]","dist_absent",56,59,"yes","yes",1680,NA,NA,NA,NA,"R","NR","lp",NA,NA,NA,NA,NA,NA,"practice",4,"NR","in"
"30",910.290299998422,37313.1437999964,37313.1437999964,23,23,"n",1,"['1']","y","#000000","no",327458.750100001,1,"neutral","psycho","psycho","psycho",0,"uniform",1,0,0,0,NA,0,0,NA,0,0,0,0,29,29,NA,NA,NA,NA,0,0,0,NA,29,0,29,73.2296414732588,"Mon Aug 16 15:28:25 2021","The main experiment item","yes","green","no","7","circle",NA,"pinging_target_expectations 3.2.osexp","C:\Users\etp-cp-ping\Desktop\LocalPC-EXP",75,"no","mono","no",18,"no","white","no","yes",1050,NA,100,"psycho",29,0,29,"C:/Users/etp-cp-ping/Desktop/LocalPC-EXP/subject-9.csv","psycho",6,30,30,"Lentiform Loewenfeld","3.3.8","['vert', 'vert', 'hori', 'vert', 'hori', 'hori', 'hori', 'vert']","yes",109,"diamond","yes",0,NA,2,"legacy",NA,1024,2,48000,-16,"experiment",9,"odd","red","no",6,"diamond",234999.694800001,235081.0578,235081.098299999,NA,242103.7077,NA,NA,65171.2078,3766.02169999933,NA,65171.2310000003,335558.970100001,338136.709099999,NA,NA,NA,NA,3766.10110000001,242918.467699999,NA,NA,335558.984199999,243481.368000001,335558.920899999,"New experiment",19,"[0]","dist_present",56,78,"yes","yes",1680,NA,NA,NA,NA,"NR","NR","lp",NA,NA,NA,NA,NA,NA,"practice",4,"R","in"
"31",1517.4721999992,38830.6159999956,38830.6159999956,24,24,"n",1,"['1']","y","#000000","no",327458.750100001,1,"neutral","psycho","psycho","psycho",0,"uniform",1,0,0,0,NA,0,0,NA,0,0,0,0,30,30,NA,NA,NA,NA,0,0,0,NA,30,0,30,73.2296414732588,"Mon Aug 16 15:28:25 2021","The main experiment item","yes","red","no","2","diamond",NA,"pinging_target_expectations 3.2.osexp","C:\Users\etp-cp-ping\Desktop\LocalPC-EXP",75,"no","mono","no",18,"no","white","no","yes",1050,NA,100,"psycho",30,0,30,"C:/Users/etp-cp-ping/Desktop/LocalPC-EXP/subject-9.csv","psycho",6,31,31,"Lentiform Loewenfeld","3.3.8","['hori', 'hori', 'vert', 'vert', 'hori', 'vert', 'vert', 'hori']","yes",109,"circles","yes",0,NA,2,"legacy",NA,1024,2,48000,-16,"experiment",9,"odd","green","no",0,"circle",234999.694800001,235081.0578,235081.098299999,NA,242103.7077,NA,NA,65171.2078,3766.02169999933,NA,65171.2310000003,338167.269600001,341608.7128,NA,NA,NA,NA,3766.10110000001,242918.467699999,NA,NA,338167.283700001,243481.368000001,338167.222,"New experiment",19,"[0]","dist_present",56,13,"yes","yes",1680,NA,NA,NA,NA,"NR","NR","lp","Left",NA,"Left",NA,NA,NA,"practice",6,"NR","in"
"32",1509.27090000006,40339.8868999956,40339.8868999956,25,25,"n",1,"['1']","y","#000000","no",342234.0499,1,"neutral","psycho","psycho","psycho",0,"uniform",1,0,0,0,NA,0,0,NA,0,0,0,0,31,31,NA,NA,NA,NA,0,0,0,NA,31,0,31,73.2296414732588,"Mon Aug 16 15:28:25 2021","The main experiment item","yes","green","no","2","circle",NA,"pinging_target_expectations 3.2.osexp","C:\Users\etp-cp-ping\Desktop\LocalPC-EXP",75,"no","mono","no",18,"no","white","no","yes",1050,NA,100,"psycho",31,0,31,"C:/Users/etp-cp-ping/Desktop/LocalPC-EXP/subject-9.csv","psycho",7,32,32,"Lentiform Loewenfeld","3.3.8","['hori', 'hori', 'hori', 'vert', 'vert', 'vert', 'hori', 'vert']","yes",109,"circles","yes",0,NA,2,"legacy",NA,1024,2,48000,-16,"experiment",9,"odd","red","no",0,"diamond",234999.694800001,235081.0578,235081.098299999,NA,242103.7077,NA,NA,65171.2078,3766.02169999933,NA,65171.2310000003,341639.241299999,345160.674299999,NA,NA,NA,NA,3766.10110000001,242918.467699999,NA,NA,341639.2569,243481.368000001,341639.0937,"New experiment",19,"[0]","dist_present",56,13,"yes","yes",1680,NA,NA,NA,NA,"R","R","lp","Left",NA,"Left",NA,NA,NA,"practice",0,"NR","in"
"33",1316.02779999957,41655.9146999952,41655.9146999952,26,26,"n",1,"['1']","y","#000000","no",342234.0499,1,"neutral","psycho","psycho","psycho",0,"uniform",1,0,0,0,NA,0,0,NA,0,0,0,0,32,32,NA,NA,NA,NA,0,0,0,NA,32,0,32,73.2296414732588,"Mon Aug 16 15:28:25 2021","The main experiment item","yes","green","no","None","diamond",NA,"pinging_target_expectations 3.2.osexp","C:\Users\etp-cp-ping\Desktop\LocalPC-EXP",75,"no","mono","no",18,"no","white","no","yes",1050,NA,100,"psycho",32,0,32,"C:/Users/etp-cp-ping/Desktop/LocalPC-EXP/subject-9.csv","psycho",7,33,33,"Lentiform Loewenfeld","3.3.8","['vert', 'vert', 'hori', 'hori', 'vert', 'hori', 'vert', 'hori']","no",209,"None","yes",0,NA,2,"legacy",NA,1024,2,48000,-16,"experiment",9,"odd","red","no",7,"circle",234999.694800001,235081.0578,235081.098299999,NA,242103.7077,NA,NA,65171.2078,3766.02169999933,NA,65171.2310000003,345191.210200001,348568.7117,NA,NA,NA,NA,3766.10110000001,242918.467699999,NA,NA,345191.2247,243481.368000001,345191.1583,"New experiment",19,"[0]","dist_absent",56,89,"yes","yes",1680,NA,NA,NA,NA,"NR","NR","lp",NA,"Right",NA,NA,NA,NA,"practice",0,"R","in"
"34",1028.75570000109,42684.6703999963,42684.6703999963,27,27,"n",1,"['1']","y","#000000","no",342234.0499,1,"neutral","psycho","psycho","psycho",0,"uniform",1,0,0,0,NA,0,0,NA,0,0,0,0,33,33,NA,NA,NA,NA,0,0,0,NA,33,0,33,73.2296414732588,"Mon Aug 16 15:28:25 2021","The main experiment item","yes","green","no","1","circle",NA,"pinging_target_expectations 3.2.osexp","C:\Users\etp-cp-ping\Desktop\LocalPC-EXP",75,"no","mono","no",18,"no","white","no","yes",1050,NA,100,"psycho",33,0,33,"C:/Users/etp-cp-ping/Desktop/LocalPC-EXP/subject-9.csv","psycho",7,34,34,"Lentiform Loewenfeld","3.3.8","['vert', 'vert', 'hori', 'vert', 'hori', 'hori', 'vert', 'hori']","yes",109,"circles","yes",0,NA,2,"legacy",NA,1024,2,48000,-16,"experiment",9,"odd","red","no",3,"diamond",234999.694800001,235081.0578,235081.098299999,NA,242103.7077,NA,NA,65171.2078,3766.02169999933,NA,65171.2310000003,348600.606100001,351688.739900001,NA,NA,NA,NA,3766.10110000001,242918.467699999,NA,NA,348600.620200001,243481.368000001,348600.557199999,"New experiment",19,"[0]","dist_present",56,42,"yes","yes",1680,NA,NA,NA,NA,"NR","NR","lp",NA,NA,NA,NA,NA,NA,"practice",7,"NR","in"
"35",1237.5996999999,43922.2700999962,43922.2700999962,28,28,"n",1,"['1']","y","#000000","no",342234.0499,1,"neutral","psycho","psycho","psycho",0,"uniform",1,0,0,0,NA,0,0,NA,0,0,0,0,34,34,NA,NA,NA,NA,0,0,0,NA,34,0,34,73.2296414732588,"Mon Aug 16 15:28:25 2021","The main experiment item","yes","red","no","0","circle",NA,"pinging_target_expectations 3.2.osexp","C:\Users\etp-cp-ping\Desktop\LocalPC-EXP",75,"no","mono","no",18,"no","white","no","yes",1050,NA,100,"psycho",34,0,34,"C:/Users/etp-cp-ping/Desktop/LocalPC-EXP/subject-9.csv","psycho",7,35,35,"Lentiform Loewenfeld","3.3.8","['vert', 'hori', 'vert', 'vert', 'hori', 'hori', 'vert', 'hori']","no",209,"None","yes",0,NA,2,"legacy",NA,1024,2,48000,-16,"experiment",9,"odd","green","no",1,"diamond",234999.694800001,235081.0578,235081.098299999,NA,242103.7077,NA,NA,65171.2078,3766.02169999933,NA,65171.2310000003,351719.2705,354792.6991,NA,NA,NA,NA,3766.10110000001,242918.467699999,NA,NA,351719.284499999,243481.368000001,351719.2211,"New experiment",19,"[0]","dist_present",56,21,"yes","yes",1680,NA,NA,NA,NA,"NR","NR","lp",NA,"Left",NA,NA,NA,NA,"practice",3,"NR","in"
"36",1892.35480000026,45814.6248999964,45814.6248999964,29,29,"n",1,"['1']","y","#000000","no",355987.3044,1,"neutral","psycho","psycho","psycho",0,"uniform",1,0,0,0,NA,0,0,NA,0,0,0,0,35,35,NA,NA,NA,NA,0,0,0,NA,35,0,35,73.2296414732588,"Mon Aug 16 15:28:25 2021","The main experiment item","yes","green","no","2","diamond",NA,"pinging_target_expectations 3.2.osexp","C:\Users\etp-cp-ping\Desktop\LocalPC-EXP",75,"no","mono","no",18,"no","white","no","yes",1050,NA,100,"psycho",35,0,35,"C:/Users/etp-cp-ping/Desktop/LocalPC-EXP/subject-9.csv","psycho",9,36,36,"Lentiform Loewenfeld","3.3.8","['vert', 'hori', 'vert', 'vert', 'hori', 'hori', 'vert', 'hori']","no",209,"None","yes",0,NA,2,"legacy",NA,1024,2,48000,-16,"experiment",9,"odd","red","no",3,"circle",234999.694800001,235081.0578,235081.098299999,NA,242103.7077,NA,NA,65171.2078,3766.02169999933,NA,65171.2310000003,354823.1242,358520.7023,NA,NA,NA,NA,3766.10110000001,242918.467699999,NA,NA,354823.138399999,243481.368000001,354823.0742,"New experiment",19,"[0]","dist_present",56,43,"yes","yes",1680,NA,NA,NA,NA,"NR","NR","lp",NA,NA,NA,NA,NA,NA,"practice",1,"NR","in"
"37",993.814199999149,46808.4390999956,46808.4390999956,30,30,"n",1,"['1']","y","#000000","no",355987.3044,1,"neutral","psycho","psycho","psycho",0,"uniform",1,0,0,0,NA,0,0,NA,0,0,0,0,36,36,NA,NA,NA,NA,0,0,0,NA,36,0,36,73.2296414732588,"Mon Aug 16 15:28:25 2021","The main experiment item","yes","red","no","None","diamond",NA,"pinging_target_expectations 3.2.osexp","C:\Users\etp-cp-ping\Desktop\LocalPC-EXP",75,"no","mono","no",18,"no","white","no","yes",1050,NA,100,"psycho",36,0,36,"C:/Users/etp-cp-ping/Desktop/LocalPC-EXP/subject-9.csv","psycho",9,37,37,"Lentiform Loewenfeld","3.3.8","['vert', 'hori', 'vert', 'hori', 'vert', 'hori', 'hori', 'vert']","no",209,"None","yes",0,NA,2,"legacy",NA,1024,2,48000,-16,"experiment",9,"odd","green","no",7,"circle",234999.694800001,235081.0578,235081.098299999,NA,242103.7077,NA,NA,65171.2078,3766.02169999933,NA,65171.2310000003,358551.2046,361352.750399999,NA,NA,NA,NA,3766.10110000001,242918.467699999,NA,NA,358551.218500001,243481.368000001,358551.154700001,"New experiment",19,"[0]","dist_absent",56,89,"yes","yes",1680,NA,NA,NA,NA,"NR","NR","lp",NA,"Right",NA,NA,NA,NA,"practice",3,"NR","in"
"38",1018.47940000152,47826.9184999971,47826.9184999971,31,31,"n",1,"['1']","y","#000000","no",361715.4544,1,"neutral","psycho","psycho","psycho",0,"uniform",1,0,0,0,NA,0,0,NA,0,0,0,0,37,37,NA,NA,NA,NA,0,0,0,NA,37,0,37,73.2296414732588,"Mon Aug 16 15:28:25 2021","The main experiment item","yes","red","no","7","diamond",NA,"pinging_target_expectations 3.2.osexp","C:\Users\etp-cp-ping\Desktop\LocalPC-EXP",75,"no","mono","no",18,"no","white","no","yes",1050,NA,100,"psycho",37,0,37,"C:/Users/etp-cp-ping/Desktop/LocalPC-EXP/subject-9.csv","psycho",10,38,38,"Lentiform Loewenfeld","3.3.8","['vert', 'vert', 'hori', 'hori', 'hori', 'vert', 'hori', 'vert']","yes",109,"diamond","yes",0,NA,2,"legacy",NA,1024,2,48000,-16,"experiment",9,"odd","green","no",5,"circle",234999.694800001,235081.0578,235081.098299999,NA,242103.7077,NA,NA,65171.2078,3766.02169999933,NA,65171.2310000003,361383.8074,364408.6711,NA,NA,NA,NA,3766.10110000001,242918.467699999,NA,NA,361383.8213,243481.368000001,361383.7583,"New experiment",19,"[0]","dist_present",56,68,"yes","yes",1680,NA,NA,NA,NA,"NR","NR","lp",NA,NA,NA,NA,NA,NA,"practice",7,"NR","in"
"39",952.602599998529,48779.5210999956,48779.5210999956,32,32,"n",1,"['1']","y","#000000","no",361715.4544,1,"neutral","psycho","psycho","psycho",0,"uniform",1,0,0,0,NA,0,0,NA,0,0,0,0,38,38,NA,NA,NA,NA,0,0,0,NA,38,0,38,73.2296414732588,"Mon Aug 16 15:28:25 2021","The main experiment item","yes","red","no","3","diamond",NA,"pinging_target_expectations 3.2.osexp","C:\Users\etp-cp-ping\Desktop\LocalPC-EXP",75,"no","mono","no",18,"no","white","no","yes",1050,NA,100,"psycho",38,0,38,"C:/Users/etp-cp-ping/Desktop/LocalPC-EXP/subject-9.csv","psycho",10,39,39,"Lentiform Loewenfeld","3.3.8","['hori', 'vert', 'hori', 'vert', 'hori', 'vert', 'hori', 'vert']","yes",109,"diamond","yes",0,NA,2,"legacy",NA,1024,2,48000,-16,"experiment",9,"odd","green","no",5,"circle",234999.694800001,235081.0578,235081.098299999,NA,242103.7077,NA,NA,65171.2078,3766.02169999933,NA,65171.2310000003,364439.891800001,367320.6493,NA,NA,NA,NA,3766.10110000001,242918.467699999,NA,NA,364439.906,243481.368000001,364439.842199999,"New experiment",19,"[0]","dist_present",56,64,"yes","yes",1680,NA,NA,NA,NA,"R","NR","lp",NA,NA,NA,NA,NA,NA,"practice",5,"NR","in"
"40",1366.37350000092,50145.8945999966,50145.8945999966,33,33,"n",1,"['1']","y","#000000","no",361715.4544,1,"neutral","psycho","psycho","psycho",0,"uniform",1,0,0,0,NA,0,0,NA,0,0,0,0,39,39,NA,NA,NA,NA,0,0,0,NA,39,0,39,73.2296414732588,"Mon Aug 16 15:28:25 2021","The main experiment item","yes","red","no","3","diamond",NA,"pinging_target_expectations 3.2.osexp","C:\Users\etp-cp-ping\Desktop\LocalPC-EXP",75,"no","mono","no",18,"no","white","no","yes",1050,NA,100,"psycho",39,0,39,"C:/Users/etp-cp-ping/Desktop/LocalPC-EXP/subject-9.csv","psycho",10,40,40,"Lentiform Loewenfeld","3.3.8","['hori', 'hori', 'vert', 'vert', 'vert', 'vert', 'hori', 'hori']","yes",109,"diamond","yes",0,NA,2,"legacy",NA,1024,2,48000,-16,"experiment",9,"odd","green","no",0,"circle",234999.694800001,235081.0578,235081.098299999,NA,242103.7077,NA,NA,65171.2078,3766.02169999933,NA,65171.2310000003,367351.354599999,370536.661599999,NA,NA,NA,NA,3766.10110000001,242918.467699999,NA,NA,367351.3693,243481.368000001,367351.3011,"New experiment",19,"[0]","dist_present",56,14,"yes","yes",1680,NA,NA,NA,NA,"NR","R","lp","Left",NA,NA,NA,NA,NA,"practice",5,"R","in"
"41",1990.65739999973,52136.5519999963,52136.5519999963,34,34,"n",1,"['1']","y","#000000","no",361715.4544,1,"neutral","psycho","psycho","psycho",0,"uniform",1,0,0,0,NA,0,0,NA,0,0,0,0,40,40,NA,NA,NA,NA,0,0,0,NA,40,0,40,73.2296414732588,"Mon Aug 16 15:28:25 2021","The main experiment item","yes","green","no","6","circle",NA,"pinging_target_expectations 3.2.osexp","C:\Users\etp-cp-ping\Desktop\LocalPC-EXP",75,"no","mono","no",18,"no","white","no","yes",1050,NA,100,"psycho",40,0,40,"C:/Users/etp-cp-ping/Desktop/LocalPC-EXP/subject-9.csv","psycho",10,41,41,"Lentiform Loewenfeld","3.3.8","['vert', 'vert', 'hori', 'hori', 'hori', 'hori', 'vert', 'vert']","yes",109,"diamond","yes",0,NA,2,"legacy",NA,1024,2,48000,-16,"experiment",9,"odd","red","no",1,"diamond",234999.694800001,235081.0578,235081.098299999,NA,242103.7077,NA,NA,65171.2078,3766.02169999933,NA,65171.2310000003,370568.735700001,374264.668,NA,NA,NA,NA,3766.10110000001,242918.467699999,NA,NA,370568.7502,243481.368000001,370568.6842,"New experiment",19,"[0]","dist_present",56,27,"yes","yes",1680,NA,NA,NA,NA,"NR","NR","lp",NA,NA,NA,NA,NA,NA,"practice",0,"NR","in"
"42",1331.07979999838,53467.6317999947,53467.6317999947,35,35,"n",1,"['1']","y","#000000","no",361715.4544,1,"neutral","psycho","psycho","psycho",0,"uniform",1,0,0,0,NA,0,0,NA,0,0,0,0,41,41,NA,NA,NA,NA,0,0,0,NA,41,0,41,73.2296414732588,"Mon Aug 16 15:28:25 2021","The main experiment item","yes","red","no","4","diamond",NA,"pinging_target_expectations 3.2.osexp","C:\Users\etp-cp-ping\Desktop\LocalPC-EXP",75,"no","mono","no",18,"no","white","no","yes",1050,NA,100,"psycho",41,0,41,"C:/Users/etp-cp-ping/Desktop/LocalPC-EXP/subject-9.csv","psycho",10,42,42,"Lentiform Loewenfeld","3.3.8","['vert', 'hori', 'hori', 'hori', 'hori', 'vert', 'vert', 'vert']","no",209,"None","yes",0,NA,2,"legacy",NA,1024,2,48000,-16,"experiment",9,"odd","green","no",5,"circle",234999.694800001,235081.0578,235081.098299999,NA,242103.7077,NA,NA,65171.2078,3766.02169999933,NA,65171.2310000003,374295.340500001,377496.723,NA,NA,NA,NA,3766.10110000001,242918.467699999,NA,NA,374295.3543,243481.368000001,374295.291500001,"New experiment",19,"[0]","dist_present",56,65,"yes","yes",1680,NA,NA,NA,NA,"NR","NR","lp",NA,"Right",NA,NA,NA,NA,"practice",1,"NR","in"
"43",968.901800000807,54436.5335999955,54436.5335999955,36,36,"n",1,"['1']","y","#000000","no",361715.4544,1,"neutral","psycho","psycho","psycho",0,"uniform",1,0,0,0,NA,0,0,NA,0,0,0,0,42,42,NA,NA,NA,NA,0,0,0,NA,42,0,42,73.2296414732588,"Mon Aug 16 15:28:25 2021","The main experiment item","yes","red","no","1","circle",NA,"pinging_target_expectations 3.2.osexp","C:\Users\etp-cp-ping\Desktop\LocalPC-EXP",75,"no","mono","no",18,"no","white","no","yes",1050,NA,100,"psycho",42,0,42,"C:/Users/etp-cp-ping/Desktop/LocalPC-EXP/subject-9.csv","psycho",10,43,43,"Lentiform Loewenfeld","3.3.8","['vert', 'vert', 'vert', 'vert', 'hori', 'hori', 'hori', 'hori']","yes",109,"diamond","yes",0,NA,2,"legacy",NA,1024,2,48000,-16,"experiment",9,"odd","green","no",2,"diamond",234999.694800001,235081.0578,235081.098299999,NA,242103.7077,NA,NA,65171.2078,3766.02169999933,NA,65171.2310000003,377527.359600001,380488.6771,NA,NA,NA,NA,3766.10110000001,242918.467699999,NA,NA,377527.3741,243481.368000001,377527.309999999,"New experiment",19,"[0]","dist_present",56,32,"yes","yes",1680,NA,NA,NA,NA,"NR","NR","lp",NA,NA,NA,NA,NA,NA,"practice",5,"NR","in"
"44",1183.10729999939,55619.6408999949,55619.6408999949,37,37,"n",1,"['1']","y","#000000","no",380910.7984,1,"neutral","psycho","psycho","psycho",0,"uniform",1,0,0,0,NA,0,0,NA,0,0,0,0,43,43,NA,NA,NA,NA,0,0,0,NA,43,0,43,73.2296414732588,"Mon Aug 16 15:28:25 2021","The main experiment item","yes","green","no","0","diamond",NA,"pinging_target_expectations 3.2.osexp","C:\Users\etp-cp-ping\Desktop\LocalPC-EXP",75,"no","mono","no",18,"no","white","no","yes",1050,NA,100,"psycho",43,0,43,"C:/Users/etp-cp-ping/Desktop/LocalPC-EXP/subject-9.csv","psycho",11,44,44,"Lentiform Loewenfeld","3.3.8","['hori', 'hori', 'hori', 'hori', 'vert', 'vert', 'vert', 'vert']","no",209,"None","yes",0,NA,2,"legacy",NA,1024,2,48000,-16,"experiment",9,"odd","red","no",2,"circle",234999.694800001,235081.0578,235081.098299999,NA,242103.7077,NA,NA,65171.2078,3766.02169999933,NA,65171.2310000003,380519.290599999,383384.624300001,NA,NA,NA,NA,3766.10110000001,242918.467699999,NA,NA,380519.3048,243481.368000001,380519.2413,"New experiment",19,"[0]","dist_present",56,31,"yes","yes",1680,NA,NA,NA,NA,"R","NR","lp",NA,"Left",NA,"Left",NA,NA,"practice",2,"NR","in"
"45",1289.09569999995,56908.7365999948,56908.7365999948,37,37,"n",1,"['1']","y","#000000","no",380910.7984,1,"neutral","psycho","psycho","psycho",0,"uniform",0,0,0,0,NA,0,0,NA,0,0,0,0,44,44,NA,NA,NA,NA,0,0,0,NA,44,0,44,73.2296414732588,"Mon Aug 16 15:28:25 2021","The main experiment item","yes","red","no","None","circle",NA,"pinging_target_expectations 3.2.osexp","C:\Users\etp-cp-ping\Desktop\LocalPC-EXP",75,"no","mono","no",18,"no","white","no","yes",1050,NA,100,"psycho",44,0,44,"C:/Users/etp-cp-ping/Desktop/LocalPC-EXP/subject-9.csv","psycho",11,45,45,"Lentiform Loewenfeld","3.3.8","['vert', 'vert', 'hori', 'hori', 'vert', 'hori', 'vert', 'hori']","no",209,"None","yes",0,NA,2,"legacy",NA,1024,2,48000,-16,"experiment",9,"odd","green","no",7,"diamond",234999.694800001,235081.0578,235081.098299999,NA,242103.7077,NA,NA,65171.2078,3766.02169999933,NA,65171.2310000003,383415.066899999,386472.6474,NA,NA,NA,NA,3766.10110000001,242918.467699999,NA,NA,383415.081200001,243481.368000001,383415.018199999,"New experiment",19,"[0]","dist_absent",56,89,"yes","yes",1680,NA,NA,NA,NA,"NR","NR","lp",NA,"Right",NA,NA,NA,NA,"practice",2,"R","in"
"46",1393.79509999888,58302.5316999937,58302.5316999937,38,38,"n",1,"['1']","y","#000000","no",387369.922399999,1,"neutral","psycho","psycho","psycho",0,"uniform",1,0,0,0,NA,0,0,NA,0,0,0,0,45,45,NA,NA,NA,NA,0,0,0,NA,45,0,45,73.2296414732588,"Mon Aug 16 15:28:25 2021","The main experiment item","yes","green","no","2","circle",NA,"pinging_target_expectations 3.2.osexp","C:\Users\etp-cp-ping\Desktop\LocalPC-EXP",75,"no","mono","no",18,"no","white","no","yes",1050,NA,100,"psycho",45,0,45,"C:/Users/etp-cp-ping/Desktop/LocalPC-EXP/subject-9.csv","psycho",12,46,46,"Lentiform Loewenfeld","3.3.8","['hori', 'vert', 'vert', 'vert', 'vert', 'hori', 'hori', 'hori']","no",209,"None","yes",0,NA,2,"legacy",NA,1024,2,48000,-16,"experiment",9,"odd","red","no",5,"diamond",234999.694800001,235081.0578,235081.098299999,NA,242103.7077,NA,NA,65171.2078,3766.02169999933,NA,65171.2310000003,386503.263999999,389992.719899999,NA,NA,NA,NA,3766.10110000001,242918.467699999,NA,NA,386503.2782,243481.368000001,386503.212899999,"New experiment",19,"[0]","dist_present",56,63,"yes","yes",1680,NA,NA,NA,NA,"NR","NR","lp",NA,NA,NA,NA,NA,NA,"practice",7,"NR","in"
"47",1299.66939999943,59602.2010999931,59602.2010999931,39,39,"n",1,"['1']","y","#000000","no",387369.922399999,1,"neutral","psycho","psycho","psycho",0,"uniform",1,0,0,0,NA,0,0,NA,0,0,0,0,46,46,NA,NA,NA,NA,0,0,0,NA,46,0,46,73.2296414732588,"Mon Aug 16 15:28:25 2021","The main experiment item","yes","green","no","3","diamond",NA,"pinging_target_expectations 3.2.osexp","C:\Users\etp-cp-ping\Desktop\LocalPC-EXP",75,"no","mono","no",18,"no","white","no","yes",1050,NA,100,"psycho",46,0,46,"C:/Users/etp-cp-ping/Desktop/LocalPC-EXP/subject-9.csv","psycho",12,47,47,"Lentiform Loewenfeld","3.3.8","['vert', 'hori', 'vert', 'vert', 'hori', 'vert', 'hori', 'hori']","no",209,"None","yes",0,NA,2,"legacy",NA,1024,2,48000,-16,"experiment",9,"odd","red","no",4,"circle",234999.694800001,235081.0578,235081.098299999,NA,242103.7077,NA,NA,65171.2078,3766.02169999933,NA,65171.2310000003,390024.2693,393176.625599999,NA,NA,NA,NA,3766.10110000001,242918.467699999,NA,NA,390024.2837,243481.368000001,390024.219700001,"New experiment",19,"[0]","dist_present",56,54,"yes","yes",1680,NA,NA,NA,NA,"NR","NR","lp","Left",NA,NA,NA,NA,NA,"practice",5,"NR","in"
"48",1272.55349999905,60874.7545999922,60874.7545999922,40,40,"n",1,"['1']","y","#000000","no",387369.922399999,1,"neutral","psycho","psycho","psycho",0,"uniform",1,0,0,0,NA,0,0,NA,0,0,0,0,47,47,NA,NA,NA,NA,0,0,0,NA,47,0,47,73.2296414732588,"Mon Aug 16 15:28:25 2021","The main experiment item","yes","green","no","0","circle",NA,"pinging_target_expectations 3.2.osexp","C:\Users\etp-cp-ping\Desktop\LocalPC-EXP",75,"no","mono","no",18,"no","white","no","yes",1050,NA,100,"psycho",47,0,47,"C:/Users/etp-cp-ping/Desktop/LocalPC-EXP/subject-9.csv","psycho",12,48,48,"Lentiform Loewenfeld","3.3.8","['vert', 'hori', 'hori', 'hori', 'vert', 'vert', 'hori', 'vert']","no",209,"None","yes",0,NA,2,"legacy",NA,1024,2,48000,-16,"experiment",9,"odd","red","no",6,"diamond",234999.694800001,235081.0578,235081.098299999,NA,242103.7077,NA,NA,65171.2078,3766.02169999933,NA,65171.2310000003,393208.896800001,396184.6178,NA,NA,NA,NA,3766.10110000001,242918.467699999,NA,NA,393208.911199999,243481.368000001,393208.847,"New experiment",19,"[0]","dist_present",56,71,"yes","yes",1680,NA,NA,NA,NA,"NR","NR","lp",NA,"Right",NA,"Right",NA,NA,"practice",4,"NR","in"
"49",1056.32009999867,61931.0746999909,61931.0746999909,41,41,"n",1,"['1']","y","#000000","no",396759.086100001,1,"neutral","psycho","psycho","psycho",0,"uniform",1,0,0,0,NA,0,0,NA,0,0,0,0,48,48,NA,NA,NA,NA,0,0,0,NA,48,0,48,73.2296414732588,"Mon Aug 16 15:28:25 2021","The main experiment item","yes","green","no","3","circle",NA,"pinging_target_expectations 3.2.osexp","C:\Users\etp-cp-ping\Desktop\LocalPC-EXP",75,"no","mono","no",18,"no","white","no","yes",1050,NA,100,"psycho",48,0,48,"C:/Users/etp-cp-ping/Desktop/LocalPC-EXP/subject-9.csv","psycho",13,49,49,"Lentiform Loewenfeld","3.3.8","['vert', 'vert', 'vert', 'vert', 'hori', 'hori', 'hori', 'hori']","no",209,"None","yes",0,NA,2,"legacy",NA,1024,2,48000,-16,"experiment",9,"odd","red","no",6,"diamond",234999.694800001,235081.0578,235081.098299999,NA,242103.7077,NA,NA,65171.2078,3766.02169999933,NA,65171.2310000003,396215.180200001,399288.609499999,NA,NA,NA,NA,3766.10110000001,242918.467699999,NA,NA,396215.195000001,243481.368000001,396215.1307,"New experiment",19,"[0]","dist_present",56,74,"yes","yes",1680,NA,NA,NA,NA,"R","NR","lp",NA,NA,NA,NA,NA,NA,"practice",6,"NR","in"
"50",1904.78260000056,63835.8572999914,63835.8572999914,42,42,"n",1,"['1']","y","#000000","no",396759.086100001,1,"neutral","psycho","psycho","psycho",0,"uniform",1,0,0,0,NA,0,0,NA,0,0,0,0,49,49,NA,NA,NA,NA,0,0,0,NA,49,0,49,73.2296414732588,"Mon Aug 16 15:28:25 2021","The main experiment item","yes","green","no","7","diamond",NA,"pinging_target_expectations 3.2.osexp","C:\Users\etp-cp-ping\Desktop\LocalPC-EXP",75,"no","mono","no",18,"no","white","no","yes",1050,NA,100,"psycho",49,0,49,"C:/Users/etp-cp-ping/Desktop/LocalPC-EXP/subject-9.csv","psycho",13,50,50,"Lentiform Loewenfeld","3.3.8","['vert', 'vert', 'vert', 'hori', 'hori', 'vert', 'hori', 'hori']","no",209,"None","yes",0,NA,2,"legacy",NA,1024,2,48000,-16,"experiment",9,"odd","red","no",1,"circle",234999.694800001,235081.0578,235081.098299999,NA,242103.7077,NA,NA,65171.2078,3766.02169999933,NA,65171.2310000003,399319.071,403016.646599999,NA,NA,NA,NA,3766.10110000001,242918.467699999,NA,NA,399319.0854,243481.368000001,399319.021199999,"New experiment",19,"[0]","dist_present",56,28,"yes","yes",1680,NA,NA,NA,NA,"NR","NR","lp",NA,NA,NA,NA,NA,NA,"practice",6,"R","in"
"51",925.517600000603,64761.374899992,64761.374899992,43,43,"n",1,"['1']","y","#000000","no",403458.220299999,1,"neutral","psycho","psycho","psycho",0,"uniform",1,0,0,0,NA,0,0,NA,0,0,0,0,50,50,NA,NA,NA,NA,0,0,0,NA,50,0,50,73.2296414732588,"Mon Aug 16 15:28:25 2021","The main experiment item","yes","green","no","6","circle",NA,"pinging_target_expectations 3.2.osexp","C:\Users\etp-cp-ping\Desktop\LocalPC-EXP",75,"no","mono","no",18,"no","white","no","yes",1050,NA,100,"psycho",50,0,50,"C:/Users/etp-cp-ping/Desktop/LocalPC-EXP/subject-9.csv","psycho",14,51,51,"Lentiform Loewenfeld","3.3.8","['hori', 'hori', 'hori', 'vert', 'vert', 'vert', 'hori', 'vert']","no",209,"None","yes",0,NA,2,"legacy",NA,1024,2,48000,-16,"experiment",9,"odd","red","no",3,"diamond",234999.694800001,235081.0578,235081.098299999,NA,242103.7077,NA,NA,65171.2078,3766.02169999933,NA,65171.2310000003,403047.126400001,406008.6753,NA,NA,NA,NA,3766.10110000001,242918.467699999,NA,NA,403047.1406,243481.368000001,403047.0761,"New experiment",19,"[0]","dist_present",56,47,"yes","yes",1680,NA,NA,NA,NA,"NR","NR","lp",NA,NA,NA,NA,NA,NA,"practice",1,"NR","in"
"52",885.626400000532,65647.0012999926,65647.0012999926,44,44,"n",1,"['1']","y","#000000","no",403458.220299999,1,"neutral","psycho","psycho","psycho",0,"uniform",1,0,0,0,NA,0,0,NA,0,0,0,0,51,51,NA,NA,NA,NA,0,0,0,NA,51,0,51,73.2296414732588,"Mon Aug 16 15:28:25 2021","The main experiment item","yes","green","no","6","circle",NA,"pinging_target_expectations 3.2.osexp","C:\Users\etp-cp-ping\Desktop\LocalPC-EXP",75,"no","mono","no",18,"no","white","no","yes",1050,NA,100,"psycho",51,0,51,"C:/Users/etp-cp-ping/Desktop/LocalPC-EXP/subject-9.csv","psycho",14,52,52,"Lentiform Loewenfeld","3.3.8","['vert', 'vert', 'vert', 'hori', 'vert', 'hori', 'hori', 'hori']","no",209,"None","yes",0,NA,2,"legacy",NA,1024,2,48000,-16,"experiment",9,"odd","red","no",0,"diamond",234999.694800001,235081.0578,235081.098299999,NA,242103.7077,NA,NA,65171.2078,3766.02169999933,NA,65171.2310000003,406039.341600001,408925.584099999,NA,NA,NA,NA,3766.10110000001,242918.467699999,NA,NA,406039.3566,243481.368000001,406039.291200001,"New experiment",19,"[0]","dist_present",56,17,"yes","yes",1680,NA,NA,NA,NA,"NR","R","lp","Right",NA,"Right",NA,NA,NA,"practice",3,"NR","in"
"53",1037.14810000022,66684.1493999928,66684.1493999928,45,45,"n",1,"['1']","y","#000000","no",403458.220299999,1,"neutral","psycho","psycho","psycho",0,"uniform",1,0,0,0,NA,0,0,NA,0,0,0,0,52,52,NA,NA,NA,NA,0,0,0,NA,52,0,52,73.2296414732588,"Mon Aug 16 15:28:25 2021","The main experiment item","yes","red","no","5","diamond",NA,"pinging_target_expectations 3.2.osexp","C:\Users\etp-cp-ping\Desktop\LocalPC-EXP",75,"no","mono","no",18,"no","white","no","yes",1050,NA,100,"psycho",52,0,52,"C:/Users/etp-cp-ping/Desktop/LocalPC-EXP/subject-9.csv","psycho",14,53,53,"Lentiform Loewenfeld","3.3.8","['vert', 'hori', 'vert', 'hori', 'hori', 'vert', 'hori', 'vert']","yes",109,"circles","yes",0,NA,2,"legacy",NA,1024,2,48000,-16,"experiment",9,"odd","green","no",6,"circle",234999.694800001,235081.0578,235081.098299999,NA,242103.7077,NA,NA,65171.2078,3766.02169999933,NA,65171.2310000003,408957.8862,411688.647999999,NA,NA,NA,NA,3766.10110000001,242918.467699999,NA,NA,408957.9005,243481.368000001,408957.8375,"New experiment",19,"[0]","dist_present",56,76,"yes","yes",1680,NA,NA,NA,NA,"NR","NR","lp",NA,NA,NA,NA,NA,NA,"practice",0,"NR","in"
"54",944.213499999023,67628.3628999918,67628.3628999918,46,46,"n",1,"['1']","y","#000000","no",412921.4149,1,"neutral","psycho","psycho","psycho",0,"uniform",1,0,0,0,NA,0,0,NA,0,0,0,0,53,53,NA,NA,NA,NA,0,0,0,NA,53,0,53,73.2296414732588,"Mon Aug 16 15:28:25 2021","The main experiment item","yes","red","no","1","diamond",NA,"pinging_target_expectations 3.2.osexp","C:\Users\etp-cp-ping\Desktop\LocalPC-EXP",75,"no","mono","no",18,"no","white","no","yes",1050,NA,100,"psycho",53,0,53,"C:/Users/etp-cp-ping/Desktop/LocalPC-EXP/subject-9.csv","psycho",15,54,54,"Lentiform Loewenfeld","3.3.8","['hori', 'hori', 'hori', 'vert', 'hori', 'vert', 'vert', 'vert']","no",209,"None","yes",0,NA,2,"legacy",NA,1024,2,48000,-16,"experiment",9,"odd","green","no",4,"circle",234999.694800001,235081.0578,235081.098299999,NA,242103.7077,NA,NA,65171.2078,3766.02169999933,NA,65171.2310000003,411719.2385,414440.5962,NA,NA,NA,NA,3766.10110000001,242918.467699999,NA,NA,411719.2528,243481.368000001,411719.1891,"New experiment",19,"[0]","dist_present",56,52,"yes","yes",1680,NA,NA,NA,NA,"NR","NR","lp","Left",NA,NA,NA,NA,NA,"practice",6,"NR","in"
"55",985.910400000634,68614.2732999924,68614.2732999924,47,47,"n",1,"['1']","y","#000000","no",414810.4411,1,"neutral","psycho","psycho","psycho",0,"uniform",1,0,0,0,NA,0,0,NA,0,0,0,0,54,54,NA,NA,NA,NA,0,0,0,NA,54,0,54,73.2296414732588,"Mon Aug 16 15:28:25 2021","The main experiment item","yes","green","no","4","circle",NA,"pinging_target_expectations 3.2.osexp","C:\Users\etp-cp-ping\Desktop\LocalPC-EXP",75,"no","mono","no",18,"no","white","no","yes",1050,NA,100,"psycho",54,0,54,"C:/Users/etp-cp-ping/Desktop/LocalPC-EXP/subject-9.csv","psycho",16,55,55,"Lentiform Loewenfeld","3.3.8","['hori', 'hori', 'vert', 'vert', 'vert', 'hori', 'vert', 'hori']","no",209,"None","yes",0,NA,2,"legacy",NA,1024,2,48000,-16,"experiment",9,"odd","red","no",3,"diamond",234999.694800001,235081.0578,235081.098299999,NA,242103.7077,NA,NA,65171.2078,3766.02169999933,NA,65171.2310000003,414471.1174,417224.6127,NA,NA,NA,NA,3766.10110000001,242918.467699999,NA,NA,414471.131799999,243481.368000001,414471.068000001,"New experiment",19,"[0]","dist_present",56,45,"yes","yes",1680,NA,NA,NA,NA,"NR","NR","lp",NA,"Left",NA,NA,NA,NA,"practice",4,"NR","in"
"56",1034.69839999889,69648.9716999913,69648.9716999913,48,48,"n",1,"['1']","y","#000000","no",418130.5178,1,"neutral","psycho","psycho","psycho",0,"uniform",1,0,0,0,NA,0,0,NA,0,0,0,0,55,55,NA,NA,NA,NA,0,0,0,NA,55,0,55,73.2296414732588,"Mon Aug 16 15:28:25 2021","The main experiment item","yes","green","no","2","diamond",NA,"pinging_target_expectations 3.2.osexp","C:\Users\etp-cp-ping\Desktop\LocalPC-EXP",75,"no","mono","no",18,"no","white","no","yes",1050,NA,100,"psycho",55,0,55,"C:/Users/etp-cp-ping/Desktop/LocalPC-EXP/subject-9.csv","psycho",17,56,56,"Lentiform Loewenfeld","3.3.8","['vert', 'hori', 'vert', 'hori', 'vert', 'hori', 'hori', 'vert']","no",209,"None","yes",0,NA,2,"legacy",NA,1024,2,48000,-16,"experiment",9,"odd","red","no",4,"circle",234999.694800001,235081.0578,235081.098299999,NA,242103.7077,NA,NA,65171.2078,3766.02169999933,NA,65171.2310000003,417255.2457,420264.6544,NA,NA,NA,NA,3766.10110000001,242918.467699999,NA,NA,417255.259699999,243481.368000001,417255.1955,"New experiment",19,"[0]","dist_present",56,53,"yes","yes",1680,NA,NA,NA,NA,"NR","NR","lp","Left",NA,"Left",NA,NA,NA,"practice",3,"NR","in"
"57",1559.66220000107,1559.66220000107,71208.6338999924,1,49,"n",1,"['1']","y","#000000","no",671809.359499999,2,"bias","psycho","psycho","psycho",0,"uniform",1,0,1,1,NA,1,0,NA,0,0,1,0,56,56,NA,NA,NA,NA,0,1,1,NA,56,1,56,73.2296414732588,"Mon Aug 16 15:28:25 2021","The main experiment item","yes","red","no","7","circle",NA,"pinging_target_expectations 3.2.osexp","C:\Users\etp-cp-ping\Desktop\LocalPC-EXP",75,"no","mono","no",18,"no","white","no","yes",1050,NA,2,"psycho",0,1,0,"C:/Users/etp-cp-ping/Desktop/LocalPC-EXP/subject-9.csv","psycho",1,57,1,"Lentiform Loewenfeld","3.3.8","['hori', 'hori', 'vert', 'vert', 'hori', 'hori', 'vert', 'vert']","no",202,"None","no",0,NA,2,"legacy",NA,1024,2,48000,-16,"experiment",9,"odd","green","yes",2,"diamond",234999.694800001,601681.8733,601681.9215,NA,650956.200099999,NA,NA,65171.2078,3766.02169999933,420805.0525,65171.2310000003,670910.685499999,674280.307499999,NA,NA,NA,NA,3766.10110000001,670405.4631,420294.550000001,NA,670910.7006,670906.3439,670910.642499999,"New experiment",19,"[0]","dist_present",56,38,"yes","yes",1680,NA,NA,"no hp","True","NR","NR","lp",NA,NA,NA,NA,0,3,"first",999,"NR","in"
"58",1044.06659999944,2603.72880000051,72252.7004999918,2,50,"n",1,"['1']","y","#000000","no",671809.359499999,2,"bias","psycho","psycho","psycho",0,"uniform",1,0,1,1,NA,1,0,NA,0,0,1,0,57,57,NA,NA,NA,NA,0,1,1,NA,57,1,57,73.2296414732588,"Mon Aug 16 15:28:25 2021","The main experiment item","yes","green","no","5","diamond",NA,"pinging_target_expectations 3.2.osexp","C:\Users\etp-cp-ping\Desktop\LocalPC-EXP",75,"no","mono","no",18,"no","white","no","yes",1050,NA,2,"psycho",1,1,1,"C:/Users/etp-cp-ping/Desktop/LocalPC-EXP/subject-9.csv","psycho",1,58,2,"Lentiform Loewenfeld","3.3.8","['vert', 'hori', 'hori', 'vert', 'vert', 'vert', 'hori', 'hori']","yes",102,"diamond","no",0,NA,2,"legacy",NA,1024,2,48000,-16,"experiment",9,"odd","red","yes",2,"circle",234999.694800001,601681.8733,601681.9215,NA,650956.200099999,NA,NA,65171.2078,3766.02169999933,420805.0525,65171.2310000003,674312.3089,677192.3105,NA,NA,NA,NA,3766.10110000001,670405.4631,420294.550000001,NA,674312.323599999,670906.3439,674312.2583,"New experiment",19,"[0]","dist_present",56,36,"yes","yes",1680,-22.3184575255098,-2.16661058673459,"more toward","False","R","NR","hp",NA,NA,NA,NA,0,-3,"first",2,"NR","ex"
"59",930.553700000048,3534.28250000055,73183.2541999919,3,51,"n",1,"['1']","y","#000000","no",671809.359499999,2,"bias","psycho","psycho","psycho",0,"uniform",1,0,1,1,NA,1,0,NA,0,0,1,0,58,58,NA,NA,NA,NA,0,1,1,NA,58,1,58,73.2296414732588,"Mon Aug 16 15:28:25 2021","The main experiment item","yes","red","no","1","diamond",NA,"pinging_target_expectations 3.2.osexp","C:\Users\etp-cp-ping\Desktop\LocalPC-EXP",75,"no","mono","no",18,"no","white","no","yes",1050,NA,2,"psycho",2,1,2,"C:/Users/etp-cp-ping/Desktop/LocalPC-EXP/subject-9.csv","psycho",1,59,3,"Lentiform Loewenfeld","3.3.8","['hori', 'vert', 'vert', 'vert', 'hori', 'hori', 'hori', 'vert']","no",202,"None","no",0,NA,2,"legacy",NA,1024,2,48000,-16,"experiment",9,"odd","green","no",6,"circle",234999.694800001,601681.8733,601681.9215,NA,650956.200099999,NA,NA,65171.2078,3766.02169999933,420805.0525,65171.2310000003,677223.013799999,680088.4159,NA,NA,NA,NA,3766.10110000001,670405.4631,420294.550000001,NA,677223.0282,670906.3439,677222.962,"New experiment",19,"[0]","dist_present",56,72,"yes","yes",1680,-26.3715825255099,-20.6108605867346,"more away","False","NR","NR","hp",NA,NA,NA,NA,4,1,"first",2,"R","in"
"60",754.517199999071,4288.79969999962,73937.7713999909,4,52,"n",1,"['1']","y","#000000","no",671809.359499999,2,"bias","psycho","psycho","psycho",0,"uniform",1,0,1,1,NA,1,0,NA,0,0,1,0,59,59,NA,NA,NA,NA,0,1,1,NA,59,1,59,73.2296414732588,"Mon Aug 16 15:28:25 2021","The main experiment item","yes","green","no","3","circle",NA,"pinging_target_expectations 3.2.osexp","C:\Users\etp-cp-ping\Desktop\LocalPC-EXP",75,"no","mono","no",18,"no","white","no","yes",1050,NA,2,"psycho",3,1,3,"C:/Users/etp-cp-ping/Desktop/LocalPC-EXP/subject-9.csv","psycho",1,60,4,"Lentiform Loewenfeld","3.3.8","['vert', 'hori', 'vert', 'hori', 'vert', 'hori', 'hori', 'vert']","no",202,"None","no",0,NA,2,"legacy",NA,1024,2,48000,-16,"experiment",9,"odd","red","no",7,"diamond",234999.694800001,601681.8733,601681.9215,NA,650956.200099999,NA,NA,65171.2078,3766.02169999933,420805.0525,65171.2310000003,680119.2293,682712.235499999,NA,NA,NA,NA,3766.10110000001,670405.4631,420294.550000001,NA,680119.245399999,670906.3439,680119.180199999,"New experiment",19,"[0]","dist_present",56,84,"yes","yes",1680,-21.6844575255099,-6.1684855867346,"more toward","False","NR","NR","lp",NA,NA,NA,NA,3,-1,"first",6,"NR","in"
"61",719.202800000785,5008.00250000041,74656.9741999917,5,53,"n",1,"['1']","y","#000000","no",671809.359499999,2,"bias","psycho","psycho","psycho",0,"uniform",1,0,1,1,NA,1,0,NA,0,0,1,0,60,60,NA,NA,NA,NA,0,1,1,NA,60,1,60,73.2296414732588,"Mon Aug 16 15:28:25 2021","The main experiment item","yes","red","no","7","circle",NA,"pinging_target_expectations 3.2.osexp","C:\Users\etp-cp-ping\Desktop\LocalPC-EXP",75,"no","mono","no",18,"no","white","no","yes",1050,NA,2,"psycho",4,1,4,"C:/Users/etp-cp-ping/Desktop/LocalPC-EXP/subject-9.csv","psycho",1,61,5,"Lentiform Loewenfeld","3.3.8","['hori', 'hori', 'vert', 'vert', 'vert', 'hori', 'hori', 'vert']","no",202,"None","no",0,NA,2,"legacy",NA,1024,2,48000,-16,"experiment",9,"odd","green","no",0,"diamond",234999.694800001,601681.8733,601681.9215,NA,650956.200099999,NA,NA,65171.2078,3766.02169999933,420805.0525,65171.2310000003,682742.9529,685192.243899999,NA,NA,NA,NA,3766.10110000001,670405.4631,420294.550000001,NA,682742.9668,670906.3439,682742.9035,"New experiment",19,"[0]","dist_present",56,18,"yes","yes",1680,-40.7338325255099,-14.7591105867346,"more away","False","NR","NR","lp","Right",NA,NA,NA,2,3,"first",7,"NR","in"
"62",1573.67189999972,6581.67440000013,76230.6460999915,6,54,"n",1,"['1']","y","#000000","no",671809.359499999,2,"bias","psycho","psycho","psycho",0,"uniform",1,0,1,1,NA,1,0,NA,0,0,1,0,61,61,NA,NA,NA,NA,0,1,1,NA,61,1,61,73.2296414732588,"Mon Aug 16 15:28:25 2021","The main experiment item","yes","green","no","4","diamond",NA,"pinging_target_expectations 3.2.osexp","C:\Users\etp-cp-ping\Desktop\LocalPC-EXP",75,"no","mono","no",18,"no","white","no","yes",1050,NA,2,"psycho",5,1,5,"C:/Users/etp-cp-ping/Desktop/LocalPC-EXP/subject-9.csv","psycho",1,62,6,"Lentiform Loewenfeld","3.3.8","['hori', 'hori', 'hori', 'vert', 'hori', 'vert', 'vert', 'vert']","yes",102,"circles","no",0,NA,2,"legacy",NA,1024,2,48000,-16,"experiment",9,"odd","red","no",5,"circle",234999.694800001,601681.8733,601681.9215,NA,650956.200099999,NA,NA,65171.2078,3766.02169999933,420805.0525,65171.2310000003,685222.897199999,688680.360099999,NA,NA,NA,NA,3766.10110000001,670405.4631,420294.550000001,NA,685222.9112,670906.3439,685222.847700001,"New experiment",19,"[0]","dist_present",56,65,"yes","yes",1680,-28.45845752551,-11.1333605867346,"more away","False","NR","NR","lp",NA,"Right",NA,NA,-3,-2,"first",0,"NR","in"
"63",2000.94469999929,8582.61909999943,78231.5907999908,6,54,"n",1,"['1']","y","#000000","no",671809.359499999,2,"bias","psycho","psycho","psycho",0,"uniform",0,0,1,1,NA,1,0,NA,0,0,1,0,62,62,NA,NA,NA,NA,0,1,1,NA,62,1,62,73.2296414732588,"Mon Aug 16 15:28:25 2021","The main experiment item","yes","red","no","None","circle",NA,"pinging_target_expectations 3.2.osexp","C:\Users\etp-cp-ping\Desktop\LocalPC-EXP",75,"no","mono","no",18,"no","white","no","yes",1050,NA,2,"psycho",6,1,6,"C:/Users/etp-cp-ping/Desktop/LocalPC-EXP/subject-9.csv","psycho",1,63,7,"Lentiform Loewenfeld","3.3.8","['vert', 'hori', 'vert', 'vert', 'hori', 'vert', 'hori', 'hori']","no",202,"None","no",0,NA,2,"legacy",NA,1024,2,48000,-16,"experiment",9,"odd","green","yes",2,"diamond",234999.694800001,601681.8733,601681.9215,NA,650956.200099999,NA,NA,65171.2078,3766.02169999933,420805.0525,65171.2310000003,688711.1874,692789.863599999,NA,NA,NA,NA,3766.10110000001,670405.4631,420294.550000001,NA,688711.201099999,670906.3439,688711.136899999,"New experiment",19,"[0]","dist_absent",56,39,"yes","yes",1680,-16.2334575255099,-16.0869855867346,"more toward","False","NR","NR","lp",NA,"Left",NA,"Left",0,NA,"first",5,"NR","ex"
"64",1891.12749999913,10473.7465999986,80122.7182999899,7,55,"n",1,"['1']","y","#000000","no",671809.359499999,2,"bias","psycho","psycho","psycho",0,"uniform",1,0,1,1,NA,1,0,NA,0,0,1,0,63,63,NA,NA,NA,NA,0,1,1,NA,63,1,63,73.2296414732588,"Mon Aug 16 15:28:25 2021","The main experiment item","yes","green","no","5","diamond",NA,"pinging_target_expectations 3.2.osexp","C:\Users\etp-cp-ping\Desktop\LocalPC-EXP",75,"no","mono","no",18,"no","white","no","yes",1050,NA,2,"psycho",7,1,7,"C:/Users/etp-cp-ping/Desktop/LocalPC-EXP/subject-9.csv","psycho",1,64,8,"Lentiform Loewenfeld","3.3.8","['hori', 'vert', 'vert', 'hori', 'hori', 'vert', 'hori', 'vert']","no",202,"None","no",0,NA,2,"legacy",NA,1024,2,48000,-16,"experiment",9,"odd","red","no",4,"circle",234999.694800001,601681.8733,601681.9215,NA,650956.200099999,NA,NA,65171.2078,3766.02169999933,420805.0525,65171.2310000003,692820.473199999,696840.306300001,NA,NA,NA,NA,3766.10110000001,670405.4631,420294.550000001,NA,692820.4876,670906.3439,692820.4231,"New experiment",19,"[0]","dist_present",56,56,"yes","yes",1680,-34.9317075255099,-27.0332355867346,"more away","False","NR","NR","hp","Right",NA,NA,NA,-2,-3,"first",2,"NR","in"
"65",1019.6782000002,11493.4247999988,81142.3964999901,8,56,"n",1,"['1']","y","#000000","no",671809.359499999,2,"bias","psycho","psycho","psycho",0,"uniform",1,0,1,1,NA,1,0,NA,0,0,1,0,64,64,NA,NA,NA,NA,0,1,1,NA,64,1,64,73.2296414732588,"Mon Aug 16 15:28:25 2021","The main experiment item","yes","red","no","7","diamond",NA,"pinging_target_expectations 3.2.osexp","C:\Users\etp-cp-ping\Desktop\LocalPC-EXP",75,"no","mono","no",18,"no","white","no","yes",1050,NA,2,"psycho",8,1,8,"C:/Users/etp-cp-ping/Desktop/LocalPC-EXP/subject-9.csv","psycho",1,65,9,"Lentiform Loewenfeld","3.3.8","['vert', 'hori', 'hori', 'vert', 'hori', 'hori', 'vert', 'vert']","yes",102,"circles","no",0,NA,2,"legacy",NA,1024,2,48000,-16,"experiment",9,"odd","green","yes",2,"circle",234999.694800001,601681.8733,601681.9215,NA,650956.200099999,NA,NA,65171.2078,3766.02169999933,420805.0525,65171.2310000003,696871.158399999,699784.2621,NA,NA,NA,NA,3766.10110000001,670405.4631,420294.550000001,NA,696871.172200001,670906.3439,696871.109199999,"New experiment",19,"[0]","dist_present",56,38,"yes","yes",1680,-26.5417075255099,-8.4587355867346,"more away","False","NR","NR","lp",NA,NA,NA,NA,0,3,"first",4,"NR","ex"
"66",709.190999999875,12202.6157999986,81851.58749999,9,57,"n",1,"['1']","y","#000000","no",671809.359499999,2,"bias","psycho","psycho","psycho",0,"uniform",1,0,1,1,NA,1,0,NA,0,0,1,0,65,65,NA,NA,NA,NA,0,1,1,NA,65,1,65,73.2296414732588,"Mon Aug 16 15:28:25 2021","The main experiment item","yes","red","no","4","diamond",NA,"pinging_target_expectations 3.2.osexp","C:\Users\etp-cp-ping\Desktop\LocalPC-EXP",75,"no","mono","no",18,"no","white","no","yes",1050,NA,2,"psycho",9,1,9,"C:/Users/etp-cp-ping/Desktop/LocalPC-EXP/subject-9.csv","psycho",1,66,10,"Lentiform Loewenfeld","3.3.8","['hori', 'vert', 'vert', 'vert', 'hori', 'hori', 'hori', 'vert']","yes",102,"circles","no",0,NA,2,"legacy",NA,1024,2,48000,-16,"experiment",9,"odd","green","yes",2,"circle",234999.694800001,601681.8733,601681.9215,NA,650956.200099999,NA,NA,65171.2078,3766.02169999933,420805.0525,65171.2310000003,699815.2593,702360.2692,NA,NA,NA,NA,3766.10110000001,670405.4631,420294.550000001,NA,699815.273099999,670906.3439,699815.2106,"New experiment",19,"[0, 74.60898241062132, 93.28774618816735, 110.2479076783849, 129.40016106856692, 149.34822925479605, 171.29369373015442, 190.395888058156, 209.57912758138437, 229.19467454086106, 250.26440458472922, 270.27052436914875, 290.89928244892184, 310.14874634342635, 328.6208058620314, 349.025271438243, 370.53875726402214, 393.5760282582408, 409.51311463684715, 423.4736599845187, 443.59952661129705, 459.4330611267006, 478.11570606265303, 491.453383411292, 505.57037417858385, 519.3130350276333, 529.2203979851469, 539.8537682477624, 548.9944911770758, 556.0063506805213, 557.7506479670102, 559.3392935269293, 559.3536683148909, 558.3707434960963, 556.3564036881463, 553.2603888285156, 555.0353085835324, 556.7120457909223, 556.7037759703898, 521.3697171166274, 503.63416971478176, 499.8918531846382, 498.8016418454484, 501.1379643267426, 501.0565985774742, 492.0055778894347, 479.4391975887782, 455.8394879338184, 421.80662682049945, 391.9637785949997, 363.37488344739916, 341.7122166156431, 325.2318199177504, 308.92191159478966, 291.5483580481412, 276.0489027137288, 259.8596895244563, 244.71158555029686, 228.34499802395354, 214.5084826434067, 199.64659171153372, 188.29652322648147, 174.05313604609546, 162.1477438478904, 149.65463975825497, 137.0192019539676, 125.99067973225351, 113.72092536005341, 103.12852368506536, 92.99731178910496, 82.49700728473789]","dist_present",56,35,"yes","yes",1680,NA,NA,"no hp","True","R","NR","hp",NA,"Left",NA,"Left",0,-2,"first",2,"NR","ex"
"67",1145.3903999991,13348.0061999977,82996.9778999891,9,57,"n",1,"['1']","y","#000000","no",671809.359499999,2,"bias","psycho","psycho","psycho",0,"uniform",0,0,1,1,NA,1,0,NA,0,0,1,0,66,66,NA,NA,NA,NA,0,1,1,NA,66,1,66,73.2296414732588,"Mon Aug 16 15:28:25 2021","The main experiment item","yes","red","no","7","diamond",NA,"pinging_target_expectations 3.2.osexp","C:\Users\etp-cp-ping\Desktop\LocalPC-EXP",75,"no","mono","no",18,"no","white","no","yes",1050,NA,2,"psycho",10,1,10,"C:/Users/etp-cp-ping/Desktop/LocalPC-EXP/subject-9.csv","psycho",1,67,11,"Lentiform Loewenfeld","3.3.8","['vert', 'vert', 'hori', 'hori', 'vert', 'hori', 'vert', 'hori']","no",202,"None","no",0,NA,2,"legacy",NA,1024,2,48000,-16,"experiment",9,"odd","green","no",0,"circle",234999.694800001,601681.8733,601681.9215,NA,650956.200099999,NA,NA,65171.2078,3766.02169999933,420805.0525,65171.2310000003,702391.031699999,705320.237399999,NA,NA,NA,NA,3766.10110000001,670405.4631,420294.550000001,NA,702391.0455,670906.3439,702390.9817,"New experiment",19,"[0]","dist_present",56,18,"yes","yes",1680,-35.6778325255098,-12.1401105867346,"more away","False","NR","NR","hp","Right",NA,NA,NA,2,3,"first",2,"R","in"
"68",2000.63220000081,15348.6383999985,84997.6100999899,9,57,"n",1,"['1']","y","#000000","no",671809.359499999,2,"bias","psycho","psycho","psycho",0,"uniform",0,0,1,1,NA,1,0,NA,0,0,1,0,67,67,NA,NA,NA,NA,0,1,1,NA,67,1,67,73.2296414732588,"Mon Aug 16 15:28:25 2021","The main experiment item","yes","red","no","None","diamond",NA,"pinging_target_expectations 3.2.osexp","C:\Users\etp-cp-ping\Desktop\LocalPC-EXP",75,"no","mono","no",18,"no","white","no","yes",1050,NA,2,"psycho",11,1,11,"C:/Users/etp-cp-ping/Desktop/LocalPC-EXP/subject-9.csv","psycho",1,68,12,"Lentiform Loewenfeld","3.3.8","['vert', 'hori', 'vert', 'hori', 'hori', 'vert', 'hori', 'vert']","yes",102,"diamond","no",0,NA,2,"legacy",NA,1024,2,48000,-16,"experiment",9,"odd","green","no",7,"circle",234999.694800001,601681.8733,601681.9215,NA,650956.200099999,NA,NA,65171.2078,3766.02169999933,420805.0525,65171.2310000003,705350.936000001,709134.297299999,NA,NA,NA,NA,3766.10110000001,670405.4631,420294.550000001,NA,705350.95,670906.3439,705350.886300001,"New experiment",19,"[0]","dist_absent",56,89,"yes","yes",1680,NA,NA,"no hp","True","NR","NR","lp",NA,"Right",NA,NA,3,NA,"first",0,"NR","in"
"69",1310.40000000026,16659.0383999988,86308.0100999901,10,58,"n",1,"['1']","y","#000000","no",671809.359499999,2,"bias","psycho","psycho","psycho",0,"uniform",1,0,1,1,NA,1,0,NA,0,0,1,0,68,68,NA,NA,NA,NA,0,1,1,NA,68,1,68,73.2296414732588,"Mon Aug 16 15:28:25 2021","The main experiment item","yes","green","no","None","diamond",NA,"pinging_target_expectations 3.2.osexp","C:\Users\etp-cp-ping\Desktop\LocalPC-EXP",75,"no","mono","no",18,"no","white","no","yes",1050,NA,2,"psycho",12,1,12,"C:/Users/etp-cp-ping/Desktop/LocalPC-EXP/subject-9.csv","psycho",1,69,13,"Lentiform Loewenfeld","3.3.8","['hori', 'hori', 'vert', 'hori', 'vert', 'vert', 'vert', 'hori']","no",202,"None","no",0,NA,2,"legacy",NA,1024,2,48000,-16,"experiment",9,"odd","red","no",6,"circle",234999.694800001,601681.8733,601681.9215,NA,650956.200099999,NA,NA,65171.2078,3766.02169999933,420805.0525,65171.2310000003,709165.405399999,712136.2801,NA,NA,NA,NA,3766.10110000001,670405.4631,420294.550000001,NA,709165.421100001,670906.3439,709165.2251,"New experiment",19,"[0]","dist_absent",56,79,"yes","yes",1680,-27.2209575255098,-16.3286105867346,"more away","False","NR","R","lp",NA,"Right",NA,"Right",4,NA,"first",7,"NR","in"
"70",1370.10569999972,18029.1440999985,87678.1157999898,10,58,"n",1,"['1']","y","#000000","no",671809.359499999,2,"bias","psycho","psycho","psycho",0,"uniform",0,0,1,1,NA,1,0,NA,0,0,1,0,69,69,NA,NA,NA,NA,0,1,1,NA,69,1,69,73.2296414732588,"Mon Aug 16 15:28:25 2021","The main experiment item","yes","green","yes","2","circle",NA,"pinging_target_expectations 3.2.osexp","C:\Users\etp-cp-ping\Desktop\LocalPC-EXP",75,"no","mono","no",18,"no","white","no","yes",1050,NA,2,"psycho",13,1,13,"C:/Users/etp-cp-ping/Desktop/LocalPC-EXP/subject-9.csv","psycho",1,70,14,"Lentiform Loewenfeld","3.3.8","['hori', 'vert', 'vert', 'hori', 'vert', 'vert', 'hori', 'hori']","no",202,"None","no",0,NA,2,"legacy",NA,1024,2,48000,-16,"experiment",9,"odd","red","no",4,"diamond",234999.694800001,601681.8733,601681.9215,NA,650956.200099999,NA,NA,65171.2078,3766.02169999933,420805.0525,65171.2310000003,712166.858,715384.2246,NA,NA,NA,NA,3766.10110000001,670405.4631,420294.550000001,NA,712166.8718,670906.3439,712166.8083,"New experiment",19,"[0]","dist_present",56,53,"yes","yes",1680,-31.4513325255099,-18.5644855867346,"more away","False","NR","NR","lp","Left",NA,"Left",NA,-2,0,"first",6,"NR","in"
"71",839.791399999755,18868.9354999983,88517.9071999896,11,59,"n",1,"['1']","y","#000000","no",715807.2412,2,"bias","psycho","psycho","psycho",0,"uniform",1,0,1,1,NA,1,0,NA,0,0,1,0,70,70,NA,NA,NA,NA,0,1,1,NA,70,1,70,73.2296414732588,"Mon Aug 16 15:28:25 2021","The main experiment item","yes","green","no","None","circle",NA,"pinging_target_expectations 3.2.osexp","C:\Users\etp-cp-ping\Desktop\LocalPC-EXP",75,"no","mono","no",18,"no","white","no","yes",1050,NA,2,"psycho",14,1,14,"C:/Users/etp-cp-ping/Desktop/LocalPC-EXP/subject-9.csv","psycho",2,71,15,"Lentiform Loewenfeld","3.3.8","['hori', 'vert', 'vert', 'vert', 'vert', 'hori', 'hori', 'hori']","no",202,"None","no",0,NA,2,"legacy",NA,1024,2,48000,-16,"experiment",9,"odd","red","no",4,"diamond",234999.694800001,601681.8733,601681.9215,NA,650956.200099999,NA,NA,65171.2078,3766.02169999933,420805.0525,65171.2310000003,715414.95,718008.2413,NA,NA,NA,NA,3766.10110000001,670405.4631,420294.550000001,NA,715414.963900001,670906.3439,715414.8996,"New experiment",19,"[0]","dist_absent",56,59,"yes","no",1680,-30.1613325255099,-20.6118605867346,"more away","False","R","NR","lp",NA,NA,NA,NA,-2,NA,"first",4,"NR","in"
"72",1499.88699999999,20368.8224999983,90017.7941999896,12,60,"n",1,"['1']","y","#000000","no",715807.2412,2,"bias","psycho","psycho","psycho",0,"uniform",1,0,1,1,NA,1,0,NA,0,0,1,0,71,71,NA,NA,NA,NA,0,1,1,NA,71,1,71,73.2296414732588,"Mon Aug 16 15:28:25 2021","The main experiment item","yes","green","no","1","diamond",NA,"pinging_target_expectations 3.2.osexp","C:\Users\etp-cp-ping\Desktop\LocalPC-EXP",75,"no","mono","no",18,"no","white","no","yes",1050,NA,2,"psycho",15,1,15,"C:/Users/etp-cp-ping/Desktop/LocalPC-EXP/subject-9.csv","psycho",2,72,16,"Lentiform Loewenfeld","3.3.8","['vert', 'vert', 'hori', 'hori', 'vert', 'vert', 'hori', 'hori']","yes",102,"diamond","no",0,NA,2,"legacy",NA,1024,2,48000,-16,"experiment",9,"odd","red","yes",2,"circle",234999.694800001,601681.8733,601681.9215,NA,650956.200099999,NA,NA,65171.2078,3766.02169999933,420805.0525,65171.2310000003,718038.855999999,721576.3216,NA,NA,NA,NA,3766.10110000001,670405.4631,420294.550000001,NA,718038.8699,670906.3439,718038.807200001,"New experiment",19,"[0]","dist_present",56,32,"yes","yes",1680,-25.95958252551,-16.4827355867346,"more away","False","NR","NR","lp",NA,NA,NA,NA,0,1,"first",4,"R","ex"
"73",748.713299999596,21117.5357999979,90766.5074999892,13,61,"n",1,"['1']","y","#000000","no",715807.2412,2,"bias","psycho","psycho","psycho",0,"uniform",1,0,1,1,NA,1,0,NA,0,0,1,0,72,72,NA,NA,NA,NA,0,1,1,NA,72,1,72,73.2296414732588,"Mon Aug 16 15:28:25 2021","The main experiment item","yes","green","no","None","diamond",NA,"pinging_target_expectations 3.2.osexp","C:\Users\etp-cp-ping\Desktop\LocalPC-EXP",75,"no","mono","no",18,"no","white","no","yes",1050,NA,2,"psycho",16,1,16,"C:/Users/etp-cp-ping/Desktop/LocalPC-EXP/subject-9.csv","psycho",2,73,17,"Lentiform Loewenfeld","3.3.8","['hori', 'hori', 'hori', 'vert', 'vert', 'vert', 'hori', 'vert']","no",202,"None","no",0,NA,2,"legacy",NA,1024,2,48000,-16,"experiment",9,"odd","red","no",7,"circle",234999.694800001,601681.8733,601681.9215,NA,650956.200099999,NA,NA,65171.2078,3766.02169999933,420805.0525,65171.2310000003,721607.264599999,724328.244599999,NA,NA,NA,NA,3766.10110000001,670405.4631,420294.550000001,NA,721607.278699999,670906.3439,721607.2164,"New experiment",19,"[0, 80.03922564344224, 84.08865411997728, 89.02964336366419, 89.22465755945332, 89.51719044549044, 87.98190732671313, 85.32036141664088, 83.4894627081821, 80.42786789163256, 77.08758644481914]","dist_absent",56,89,"yes","yes",1680,-19.67708252551,-25.9713605867346,"more toward","False","NR","NR","hp",NA,"Right",NA,NA,3,NA,"first",2,"NR","in"
"74",824.336200001184,21941.871999999,91590.8436999904,14,62,"n",1,"['1']","y","#000000","no",715807.2412,2,"bias","psycho","psycho","psycho",0,"uniform",1,0,1,1,NA,1,0,NA,0,0,1,0,73,73,NA,NA,NA,NA,0,1,1,NA,73,1,73,73.2296414732588,"Mon Aug 16 15:28:25 2021","The main experiment item","yes","red","no","None","diamond",NA,"pinging_target_expectations 3.2.osexp","C:\Users\etp-cp-ping\Desktop\LocalPC-EXP",75,"no","mono","no",18,"no","white","no","yes",1050,NA,2,"psycho",17,1,17,"C:/Users/etp-cp-ping/Desktop/LocalPC-EXP/subject-9.csv","psycho",2,74,18,"Lentiform Loewenfeld","3.3.8","['vert', 'vert', 'hori', 'vert', 'hori', 'hori', 'vert', 'hori']","yes",102,"diamond","no",0,NA,2,"legacy",NA,1024,2,48000,-16,"experiment",9,"odd","green","no",1,"circle",234999.694800001,601681.8733,601681.9215,NA,650956.200099999,NA,NA,65171.2078,3766.02169999933,420805.0525,65171.2310000003,724358.867999999,727352.1972,NA,NA,NA,NA,3766.10110000001,670405.4631,420294.550000001,NA,724358.8824,670906.3439,724358.818799999,"New experiment",19,"[0]","dist_absent",56,29,"yes","yes",1680,-34.26620752551,-21.9214855867346,"more away","False","NR","R","lp",NA,"Left",NA,NA,1,NA,"first",7,"NR","in"
"75",1203.66460000153,23145.5366000006,92794.5082999919,15,63,"n",1,"['1']","y","#000000","no",715807.2412,2,"bias","psycho","psycho","psycho",0,"uniform",1,0,1,1,NA,1,0,NA,0,0,1,0,74,74,NA,NA,NA,NA,0,1,1,NA,74,1,74,73.2296414732588,"Mon Aug 16 15:28:25 2021","The main experiment item","yes","red","yes","2","circle",NA,"pinging_target_expectations 3.2.osexp","C:\Users\etp-cp-ping\Desktop\LocalPC-EXP",75,"no","mono","no",18,"no","white","no","yes",1050,NA,2,"psycho",18,1,18,"C:/Users/etp-cp-ping/Desktop/LocalPC-EXP/subject-9.csv","psycho",2,75,19,"Lentiform Loewenfeld","3.3.8","['vert', 'vert', 'hori', 'hori', 'vert', 'vert', 'hori', 'hori']","no",202,"None","no",0,NA,2,"legacy",NA,1024,2,48000,-16,"experiment",9,"odd","green","no",5,"diamond",234999.694800001,601681.8733,601681.9215,NA,650956.200099999,NA,NA,65171.2078,3766.02169999933,420805.0525,65171.2310000003,727383.381899999,730696.2444,NA,NA,NA,NA,3766.10110000001,670405.4631,420294.550000001,NA,727383.395999999,670906.3439,727383.3325,"New experiment",19,"[0]","dist_present",56,63,"yes","yes",1680,-36.02583252551,-15.1643605867346,"more away","False","NR","NR","lp",NA,NA,NA,NA,-3,0,"first",1,"NR","in"
"76",1460.20880000107,24605.7454000016,94254.717099993,16,64,"n",1,"['1']","y","#000000","no",715807.2412,2,"bias","psycho","psycho","psycho",0,"uniform",1,0,1,1,NA,1,0,NA,0,0,1,0,75,75,NA,NA,NA,NA,0,1,1,NA,75,1,75,73.2296414732588,"Mon Aug 16 15:28:25 2021","The main experiment item","yes","green","no","None","circle",NA,"pinging_target_expectations 3.2.osexp","C:\Users\etp-cp-ping\Desktop\LocalPC-EXP",75,"no","mono","no",18,"no","white","no","yes",1050,NA,2,"psycho",19,1,19,"C:/Users/etp-cp-ping/Desktop/LocalPC-EXP/subject-9.csv","psycho",2,76,20,"Lentiform Loewenfeld","3.3.8","['hori', 'vert', 'vert', 'hori', 'hori', 'vert', 'vert', 'hori']","yes",102,"circles","no",0,NA,2,"legacy",NA,1024,2,48000,-16,"experiment",9,"odd","red","no",1,"diamond",234999.694800001,601681.8733,601681.9215,NA,650956.200099999,NA,NA,65171.2078,3766.02169999933,420805.0525,65171.2310000003,730726.880800001,734088.261700001,NA,NA,NA,NA,3766.10110000001,670405.4631,420294.550000001,NA,730726.8948,670906.3439,730726.829200001,"New experiment",19,"[0]","dist_absent",56,29,"yes","yes",1680,-20.5209575255098,-12.6046105867345,"more toward","False","NR","NR","lp",NA,"Left",NA,NA,1,NA,"first",5,"NR","in"
"77",752.879699999583,25358.6251000012,95007.5967999925,17,65,"n",1,"['1']","y","#000000","no",735033.589299999,2,"bias","psycho","psycho","psycho",0,"uniform",1,0,1,1,NA,1,0,NA,0,0,1,0,76,76,NA,NA,NA,NA,0,1,1,NA,76,1,76,73.2296414732588,"Mon Aug 16 15:28:25 2021","The main experiment item","yes","green","no","None","diamond",NA,"pinging_target_expectations 3.2.osexp","C:\Users\etp-cp-ping\Desktop\LocalPC-EXP",75,"no","mono","no",18,"no","white","no","yes",1050,NA,2,"psycho",20,1,20,"C:/Users/etp-cp-ping/Desktop/LocalPC-EXP/subject-9.csv","psycho",3,77,21,"Lentiform Loewenfeld","3.3.8","['vert', 'hori', 'hori', 'hori', 'vert', 'vert', 'hori', 'vert']","no",202,"None","no",0,NA,2,"legacy",NA,1024,2,48000,-16,"experiment",9,"odd","red","no",6,"circle",234999.694800001,601681.8733,601681.9215,NA,650956.200099999,NA,NA,65171.2078,3766.02169999933,420805.0525,65171.2310000003,734119.2293,736744.193299999,NA,NA,NA,NA,3766.10110000001,670405.4631,420294.550000001,NA,734119.2433,670906.3439,734119.180899999,"New experiment",19,"[0, 93.86310653582154, 117.34277418244521, 143.47493664849554, 168.7136345799124, 193.71441565868213, 218.60162542773793, 247.9367965884447, 276.15439522122404, 303.85928523276806, 332.2455000738704, 362.5894212916553, 391.2915525371263, 419.84495892666547, 449.66981007813246, 478.43285840335005, 505.9183583952343, 531.6819795566297, 561.7926882449008, 588.3265751629526, 620.9446523477756]","dist_absent",56,79,"yes","no",1680,-28.78833252551,-10.8362355867346,"more away","False","NR","R","lp",NA,"Right",NA,"Right",4,NA,"first",1,"NR","in"
"78",882.654200000572,26241.2793000018,95890.2509999931,18,66,"n",1,"['1']","y","#000000","no",735033.589299999,2,"bias","psycho","psycho","psycho",0,"uniform",1,0,1,1,NA,1,0,NA,0,0,1,0,77,77,NA,NA,NA,NA,0,1,1,NA,77,1,77,73.2296414732588,"Mon Aug 16 15:28:25 2021","The main experiment item","yes","red","no","6","circle",NA,"pinging_target_expectations 3.2.osexp","C:\Users\etp-cp-ping\Desktop\LocalPC-EXP",75,"no","mono","no",18,"no","white","no","yes",1050,NA,2,"psycho",21,1,21,"C:/Users/etp-cp-ping/Desktop/LocalPC-EXP/subject-9.csv","psycho",3,78,22,"Lentiform Loewenfeld","3.3.8","['vert', 'vert', 'hori', 'vert', 'hori', 'hori', 'hori', 'vert']","yes",102,"circles","no",0,NA,2,"legacy",NA,1024,2,48000,-16,"experiment",9,"odd","green","no",1,"diamond",234999.694800001,601681.8733,601681.9215,NA,650956.200099999,NA,NA,65171.2078,3766.02169999933,420805.0525,65171.2310000003,736774.8326,739816.3152,NA,NA,NA,NA,3766.10110000001,670405.4631,420294.550000001,NA,736774.846599999,670906.3439,736774.7819,"New experiment",19,"[0]","dist_present",56,27,"yes","yes",1680,-26.58120752551,-19.2732355867346,"more away","False","NR","NR","lp",NA,NA,NA,NA,1,4,"first",6,"NR","in"
"79",2000.83550000086,28242.1148000027,97891.086499994,18,66,"n",1,"['1']","y","#000000","no",735033.589299999,2,"bias","psycho","psycho","psycho",0,"uniform",0,0,1,1,NA,1,0,NA,0,0,1,0,78,78,NA,NA,NA,NA,0,1,1,NA,78,1,78,73.2296414732588,"Mon Aug 16 15:28:25 2021","The main experiment item","yes","green","no","1","circle",NA,"pinging_target_expectations 3.2.osexp","C:\Users\etp-cp-ping\Desktop\LocalPC-EXP",75,"no","mono","no",18,"no","white","no","yes",1050,NA,2,"psycho",22,1,22,"C:/Users/etp-cp-ping/Desktop/LocalPC-EXP/subject-9.csv","psycho",3,79,23,"Lentiform Loewenfeld","3.3.8","['vert', 'hori', 'hori', 'vert', 'hori', 'vert', 'vert', 'hori']","no",202,"None","no",0,NA,2,"legacy",NA,1024,2,48000,-16,"experiment",9,"odd","red","yes",2,"diamond",234999.694800001,601681.8733,601681.9215,NA,650956.200099999,NA,NA,65171.2078,3766.02169999933,420805.0525,65171.2310000003,739847.4374,743652.3217,NA,NA,NA,NA,3766.10110000001,670405.4631,420294.550000001,NA,739847.451399999,670906.3439,739847.386699999,"New experiment",19,"[0]","dist_present",56,32,"yes","yes",1680,-23.00258252551,-25.1783605867345,"more toward","False","NR","NR","lp",NA,NA,NA,NA,0,1,"first",1,"NR","ex"
"80",961.378400001209,29203.4932000039,98852.4648999952,19,67,"n",1,"['1']","y","#000000","no",735033.589299999,2,"bias","psycho","psycho","psycho",0,"uniform",1,0,1,1,NA,1,0,NA,0,0,1,0,79,79,NA,NA,NA,NA,0,1,1,NA,79,1,79,73.2296414732588,"Mon Aug 16 15:28:25 2021","The main experiment item","yes","red","no","3","diamond",NA,"pinging_target_expectations 3.2.osexp","C:\Users\etp-cp-ping\Desktop\LocalPC-EXP",75,"no","mono","no",18,"no","white","no","yes",1050,NA,2,"psycho",23,1,23,"C:/Users/etp-cp-ping/Desktop/LocalPC-EXP/subject-9.csv","psycho",3,80,24,"Lentiform Loewenfeld","3.3.8","['vert', 'vert', 'vert', 'hori', 'hori', 'hori', 'vert', 'hori']","no",202,"None","no",0,NA,2,"legacy",NA,1024,2,48000,-16,"experiment",9,"odd","green","yes",2,"circle",234999.694800001,601681.8733,601681.9215,NA,650956.200099999,NA,NA,65171.2078,3766.02169999933,420805.0525,65171.2310000003,743683.0116,746456.2049,NA,NA,NA,NA,3766.10110000001,670405.4631,420294.550000001,NA,743683.025599999,670906.3439,743682.9629,"New experiment",19,"[0]","dist_present",56,34,"yes","yes",1680,-23.2933325255098,-11.9049855867346,"more away","False","R","NR","hp",NA,NA,NA,NA,0,-1,"first",2,"NR","ex"
"81",871.790099999984,30075.2833000039,99724.2549999952,20,68,"n",1,"['1']","y","#000000","no",735033.589299999,2,"bias","psycho","psycho","psycho",0,"uniform",1,0,1,1,NA,1,0,NA,0,0,1,0,80,80,NA,NA,NA,NA,0,1,1,NA,80,1,80,73.2296414732588,"Mon Aug 16 15:28:25 2021","The main experiment item","yes","red","no","7","circle",NA,"pinging_target_expectations 3.2.osexp","C:\Users\etp-cp-ping\Desktop\LocalPC-EXP",75,"no","mono","no",18,"no","white","no","yes",1050,NA,2,"psycho",24,1,24,"C:/Users/etp-cp-ping/Desktop/LocalPC-EXP/subject-9.csv","psycho",3,81,25,"Lentiform Loewenfeld","3.3.8","['vert', 'vert', 'vert', 'vert', 'hori', 'hori', 'hori', 'hori']","no",202,"None","no",0,NA,2,"legacy",NA,1024,2,48000,-16,"experiment",9,"odd","green","no",3,"diamond",234999.694800001,601681.8733,601681.9215,NA,650956.200099999,NA,NA,65171.2078,3766.02169999933,420805.0525,65171.2310000003,746487.194199999,749144.210799999,NA,NA,NA,NA,3766.10110000001,670405.4631,420294.550000001,NA,746487.2082,670906.3439,746487.144000001,"New experiment",19,"[0]","dist_present",56,48,"yes","yes",1680,-30.15370752551,-6.73911058673459,"more away","False","NR","NR","hp",NA,NA,NA,NA,-1,3,"first",2,"R","in"
"82",1549.78410000156,31625.0674000054,101274.039099997,21,69,"n",1,"['1']","y","#000000","no",735033.589299999,2,"bias","psycho","psycho","psycho",0,"uniform",1,0,1,1,NA,1,0,NA,0,0,1,0,81,81,NA,NA,NA,NA,0,1,1,NA,81,1,81,73.2296414732588,"Mon Aug 16 15:28:25 2021","The main experiment item","yes","green","no","3","circle",NA,"pinging_target_expectations 3.2.osexp","C:\Users\etp-cp-ping\Desktop\LocalPC-EXP",75,"no","mono","no",18,"no","white","no","yes",1050,NA,2,"psycho",25,1,25,"C:/Users/etp-cp-ping/Desktop/LocalPC-EXP/subject-9.csv","psycho",3,82,26,"Lentiform Loewenfeld","3.3.8","['vert', 'vert', 'vert', 'hori', 'hori', 'hori', 'hori', 'vert']","no",202,"None","no",0,NA,2,"legacy",NA,1024,2,48000,-16,"experiment",9,"odd","red","yes",2,"diamond",234999.694800001,601681.8733,601681.9215,NA,650956.200099999,NA,NA,65171.2078,3766.02169999933,420805.0525,65171.2310000003,749175.259,752712.248600001,NA,NA,NA,NA,3766.10110000001,670405.4631,420294.550000001,NA,749175.2729,670906.3439,749175.2101,"New experiment",19,"[0]","dist_present",56,34,"yes","yes",1680,-41.5678325255101,-10.6823605867346,"more away","False","NR","NR","lp",NA,NA,NA,NA,0,-1,"first",3,"NR","ex"
"83",1030.52079999901,32655.5882000044,102304.559899996,22,70,"n",1,"['1']","y","#000000","no",735033.589299999,2,"bias","psycho","psycho","psycho",0,"uniform",1,0,1,1,NA,1,0,NA,0,0,1,0,82,82,NA,NA,NA,NA,0,1,1,NA,82,1,82,73.2296414732588,"Mon Aug 16 15:28:25 2021","The main experiment item","yes","red","no","None","circle",NA,"pinging_target_expectations 3.2.osexp","C:\Users\etp-cp-ping\Desktop\LocalPC-EXP",75,"no","mono","no",18,"no","white","no","yes",1050,NA,2,"psycho",26,1,26,"C:/Users/etp-cp-ping/Desktop/LocalPC-EXP/subject-9.csv","psycho",3,83,27,"Lentiform Loewenfeld","3.3.8","['hori', 'hori', 'vert', 'hori', 'vert', 'vert', 'vert', 'hori']","no",202,"None","no",0,NA,2,"legacy",NA,1024,2,48000,-16,"experiment",9,"odd","green","no",5,"diamond",234999.694800001,601681.8733,601681.9215,NA,650956.200099999,NA,NA,65171.2078,3766.02169999933,420805.0525,65171.2310000003,752743.0783,755624.2002,NA,NA,NA,NA,3766.10110000001,670405.4631,420294.550000001,NA,752743.0922,670906.3439,752743.028999999,"New experiment",19,"[0]","dist_absent",56,69,"yes","yes",1680,-36.9317075255099,-19.3591105867347,"more away","False","NR","NR","hp",NA,"Right",NA,NA,-3,NA,"first",2,"NR","in"
