"","RT","RT_bl","RT_tot","acc_bl","acc_tot","answer_debrief_1","answer_debrief_2","answer_debrief_3","answer_debrief_4","background","bidi","blink_onset","block_cnt","block_type","canvas_backend","clock_backend","color_backend","compensation","coordinates","correct","count_block_loop","count_block_seq","count_block_settings","count_check_session","count_drift_correct","count_end_loop","count_end_seq","count_exp_settings","count_experiment","count_feedback","count_instructions","count_log_variables","count_logger","count_new_inline_script","count_new_pygaze_drift_correct","count_new_pygaze_start_recording","count_new_pygaze_stop_recording","count_pygaze","count_start_recording","count_stop_recording","count_test_location","count_trial","count_trial_loop","count_trial_seq","d_eye","datetime","description","disable_garbage_collection","dist_color","dist_high","dist_loc","dist_shape","empty_column","experiment_file","experiment_path","eye_threshold_length","font_bold","font_family","font_italic","font_size","font_underline","foreground","form_clicks","fullscreen","height","high_loc","high_prob_loc","keyboard_backend","live_row","live_row_block_loop","live_row_trial_loop","logfile","mouse_backend","nr_blinks","nr_trials","nr_trials_bl","opensesame_codename","opensesame_version","orient_list_trial","ping","ping_trigger","ping_type","practice","repeat_cycle","response","round_decimals","sampler_backend","session_nr","sound_buf_size","sound_channels","sound_freq","sound_sample_size","start","subject_nr","subject_parity","target_color","target_high","target_loc","target_shape","time_block_loop","time_block_seq","time_block_settings","time_check_session","time_drift_correct","time_end_loop","time_end_seq","time_exp_settings","time_experiment","time_feedback","time_instructions","time_log_variables","time_logger","time_new_inline_script","time_new_pygaze_drift_correct","time_new_pygaze_start_recording","time_new_pygaze_stop_recording","time_pygaze","time_start_recording","time_stop_recording","time_test_location","time_trial","time_trial_loop","time_trial_seq","title","total_blocks","tracker_dev","trial_type","trials_in_block","trigger","uniform_coordinates","update_blinks","width","x","y","toward","containsNaN","rept","repd","prevtar","pd","nt","pd_c","nt_c","tar_dist","dist_dist","prevHP","eegTar","repteeg","tarcounter"
"1",705.646399999794,705.646399999794,705.646399999794,1,1,"y",5,"['7', '8', '3', 'space']","n","#000000","no",3612.71429999988,1,"neutral","psycho","psycho","psycho",0,"uniform",1,0,0,0,NA,0,0,NA,0,0,0,0,0,0,NA,NA,NA,NA,0,0,0,NA,0,0,0,73.2296414732588,"Fri Oct  1 11:29:35 2021","The main experiment item","yes","red","no","1","diamond",NA,"pinging_target_expectations 4.0.osexp","C:\Users\etp-cp-ping\Desktop\LocalPC-EXP",75,"no","mono","no",18,"no","white","no","yes",1050,NA,100,"psycho",0,0,0,"C:/Users/etp-cp-ping/Desktop/LocalPC-EXP/subject-19.csv","psycho",0,1,1,"Lentiform Loewenfeld","3.3.8","['hori', 'vert', 'vert', 'vert', 'vert', 'hori', 'hori', 'hori']","no",209,"None","yes",0,NA,2,"legacy",NA,1024,2,48000,-16,"experiment",19,"odd","green","no",2,"circle",404458.8656,404477.9595,404477.9996,NA,410266.8706,NA,NA,93390.4757,3618.09479999965,NA,93390.4981999999,411364.5942,413931.592,NA,NA,NA,NA,3618.17350000001,410988.912,NA,NA,411364.6112,411360.2344,411364.5275,"New experiment",19,"[0]","dist_present",56,32,"yes","yes",1680,NA,NA,NA,NA,"NR","NR","lp",NA,NA,NA,NA,NA,NA,"practice",999,"NR","in"
"2",886.592200000014,1592.23859999981,1592.23859999981,2,2,"y",5,"['7', '8', '3', 'space']","n","#000000","no",3612.71429999988,1,"neutral","psycho","psycho","psycho",0,"uniform",1,0,0,0,NA,0,0,NA,0,0,0,0,1,1,NA,NA,NA,NA,0,0,0,NA,1,0,1,73.2296414732588,"Fri Oct  1 11:29:35 2021","The main experiment item","yes","green","no","0","circle",NA,"pinging_target_expectations 4.0.osexp","C:\Users\etp-cp-ping\Desktop\LocalPC-EXP",75,"no","mono","no",18,"no","white","no","yes",1050,NA,100,"psycho",1,0,1,"C:/Users/etp-cp-ping/Desktop/LocalPC-EXP/subject-19.csv","psycho",0,2,2,"Lentiform Loewenfeld","3.3.8","['hori', 'vert', 'hori', 'vert', 'hori', 'vert', 'hori', 'vert']","yes",109,"circles","yes",0,NA,2,"legacy",NA,1024,2,48000,-16,"experiment",19,"odd","red","no",2,"diamond",404458.8656,404477.9595,404477.9996,NA,410266.8706,NA,NA,93390.4757,3618.09479999965,NA,93390.4981999999,413971.6277,416715.6293,NA,NA,NA,NA,3618.17350000001,410988.912,NA,NA,413971.6422,411360.2344,413971.5785,"New experiment",19,"[0]","dist_present",56,31,"yes","yes",1680,NA,NA,NA,NA,"R","NR","lp",NA,"Left",NA,"Left",NA,NA,"practice",2,"NR","in"
"3",620.538600000204,2212.77720000001,2212.77720000001,2,2,"y",5,"['7', '8', '3', 'space']","n","#000000","no",3612.71429999988,1,"neutral","psycho","psycho","psycho",0,"uniform",0,0,0,0,NA,0,0,NA,0,0,0,0,2,2,NA,NA,NA,NA,0,0,0,NA,2,0,2,73.2296414732588,"Fri Oct  1 11:29:35 2021","The main experiment item","yes","green","no","None","diamond",NA,"pinging_target_expectations 4.0.osexp","C:\Users\etp-cp-ping\Desktop\LocalPC-EXP",75,"no","mono","no",18,"no","white","no","yes",1050,NA,100,"psycho",2,0,2,"C:/Users/etp-cp-ping/Desktop/LocalPC-EXP/subject-19.csv","psycho",0,3,3,"Lentiform Loewenfeld","3.3.8","['vert', 'hori', 'hori', 'vert', 'hori', 'vert', 'hori', 'vert']","no",209,"None","yes",0,NA,2,"legacy",NA,1024,2,48000,-16,"experiment",19,"odd","red","no",5,"circle",404458.8656,404477.9595,404477.9996,NA,410266.8706,NA,NA,93390.4757,3618.09479999965,NA,93390.4981999999,416746.2649,419051.5583,NA,NA,NA,NA,3618.17350000001,410988.912,NA,NA,416746.279,411360.2344,416746.2156,"New experiment",19,"[0]","dist_absent",56,69,"yes","yes",1680,NA,NA,NA,NA,"NR","NR","lp",NA,"Right",NA,NA,NA,NA,"practice",2,"R","in"
"4",494.928000000073,2707.70520000008,2707.70520000008,3,3,"y",5,"['7', '8', '3', 'space']","n","#000000","no",420141.8603,1,"neutral","psycho","psycho","psycho",0,"uniform",1,0,0,0,NA,0,0,NA,0,0,0,0,3,3,NA,NA,NA,NA,0,0,0,NA,3,0,3,73.2296414732588,"Fri Oct  1 11:29:35 2021","The main experiment item","yes","red","no","7","circle",NA,"pinging_target_expectations 4.0.osexp","C:\Users\etp-cp-ping\Desktop\LocalPC-EXP",75,"no","mono","no",18,"no","white","no","yes",1050,NA,100,"psycho",3,0,3,"C:/Users/etp-cp-ping/Desktop/LocalPC-EXP/subject-19.csv","psycho",1,4,4,"Lentiform Loewenfeld","3.3.8","['hori', 'hori', 'vert', 'vert', 'hori', 'hori', 'vert', 'vert']","no",209,"None","yes",0,NA,2,"legacy",NA,1024,2,48000,-16,"experiment",19,"odd","green","no",3,"diamond",404458.8656,404477.9595,404477.9996,NA,410266.8706,NA,NA,93390.4757,3618.09479999965,NA,93390.4981999999,419081.9054,421387.5977,NA,NA,NA,NA,3618.17350000001,410988.912,NA,NA,419081.9193,411360.2344,419081.8565,"New experiment",19,"[0]","dist_present",56,48,"yes","yes",1680,NA,NA,NA,NA,"NR","NR","lp",NA,NA,NA,NA,NA,NA,"practice",5,"NR","in"
"5",556.417100000079,3264.12230000016,3264.12230000016,3,3,"y",5,"['7', '8', '3', 'space']","n","#000000","no",420141.8603,1,"neutral","psycho","psycho","psycho",0,"uniform",0,0,0,0,NA,0,0,NA,0,0,0,0,4,4,NA,NA,NA,NA,0,0,0,NA,4,0,4,73.2296414732588,"Fri Oct  1 11:29:35 2021","The main experiment item","yes","green","no","5","diamond",NA,"pinging_target_expectations 4.0.osexp","C:\Users\etp-cp-ping\Desktop\LocalPC-EXP",75,"no","mono","no",18,"no","white","no","yes",1050,NA,100,"psycho",4,0,4,"C:/Users/etp-cp-ping/Desktop/LocalPC-EXP/subject-19.csv","psycho",1,5,5,"Lentiform Loewenfeld","3.3.8","['vert', 'vert', 'hori', 'vert', 'vert', 'hori', 'hori', 'hori']","no",209,"None","yes",0,NA,2,"legacy",NA,1024,2,48000,-16,"experiment",19,"odd","red","no",3,"circle",404458.8656,404477.9595,404477.9996,NA,410266.8706,NA,NA,93390.4757,3618.09479999965,NA,93390.4981999999,421417.7513,424171.7329,NA,NA,NA,NA,3618.17350000001,410988.912,NA,NA,421417.7655,411360.2344,421417.7009,"New experiment",19,"[0]","dist_present",56,46,"yes","yes",1680,NA,NA,NA,NA,"R","NR","lp",NA,NA,NA,NA,NA,NA,"practice",3,"NR","in"
"6",535.389899999718,3799.51219999988,3799.51219999988,3,3,"y",5,"['7', '8', '3', 'space']","n","#000000","no",420141.8603,1,"neutral","psycho","psycho","psycho",0,"uniform",0,0,0,0,NA,0,0,NA,0,0,0,0,5,5,NA,NA,NA,NA,0,0,0,NA,5,0,5,73.2296414732588,"Fri Oct  1 11:29:35 2021","The main experiment item","yes","red","no","4","diamond",NA,"pinging_target_expectations 4.0.osexp","C:\Users\etp-cp-ping\Desktop\LocalPC-EXP",75,"no","mono","no",18,"no","white","no","yes",1050,NA,100,"psycho",5,0,5,"C:/Users/etp-cp-ping/Desktop/LocalPC-EXP/subject-19.csv","psycho",1,6,6,"Lentiform Loewenfeld","3.3.8","['vert', 'vert', 'hori', 'vert', 'hori', 'hori', 'vert', 'hori']","yes",109,"diamond","yes",0,NA,2,"legacy",NA,1024,2,48000,-16,"experiment",19,"odd","green","no",6,"circle",404458.8656,404477.9595,404477.9996,NA,410266.8706,NA,NA,93390.4757,3618.09479999965,NA,93390.4981999999,424202.0199,426667.6222,NA,NA,NA,NA,3618.17350000001,410988.912,NA,NA,424202.034,411360.2344,424201.9697,"New experiment",19,"[0]","dist_present",56,75,"yes","yes",1680,NA,NA,NA,NA,"NR","NR","lp",NA,"Right",NA,"Right",NA,NA,"practice",3,"R","in"
"7",651.621899999969,4451.13409999985,4451.13409999985,4,4,"y",5,"['7', '8', '3', 'space']","n","#000000","no",420141.8603,1,"neutral","psycho","psycho","psycho",0,"uniform",1,0,0,0,NA,0,0,NA,0,0,0,0,6,6,NA,NA,NA,NA,0,0,0,NA,6,0,6,73.2296414732588,"Fri Oct  1 11:29:35 2021","The main experiment item","yes","green","no","7","circle",NA,"pinging_target_expectations 4.0.osexp","C:\Users\etp-cp-ping\Desktop\LocalPC-EXP",75,"no","mono","no",18,"no","white","no","yes",1050,NA,100,"psycho",6,0,6,"C:/Users/etp-cp-ping/Desktop/LocalPC-EXP/subject-19.csv","psycho",1,7,7,"Lentiform Loewenfeld","3.3.8","['vert', 'vert', 'hori', 'hori', 'hori', 'vert', 'vert', 'hori']","no",209,"None","yes",0,NA,2,"legacy",NA,1024,2,48000,-16,"experiment",19,"odd","red","no",3,"diamond",404458.8656,404477.9595,404477.9996,NA,410266.8706,NA,NA,93390.4757,3618.09479999965,NA,93390.4981999999,426697.9,429259.5821,NA,NA,NA,NA,3618.17350000001,410988.912,NA,NA,426697.9141,411360.2344,426697.8484,"New experiment",19,"[0]","dist_present",56,48,"yes","yes",1680,NA,NA,NA,NA,"NR","NR","lp",NA,NA,NA,NA,NA,NA,"practice",6,"NR","in"
"8",672.88069999998,5124.01479999983,5124.01479999983,4,4,"y",5,"['7', '8', '3', 'space']","n","#000000","no",430014.5077,1,"neutral","psycho","psycho","psycho",0,"uniform",0,0,0,0,NA,0,0,NA,0,0,0,0,7,7,NA,NA,NA,NA,0,0,0,NA,7,0,7,73.2296414732588,"Fri Oct  1 11:29:35 2021","The main experiment item","yes","green","no","0","diamond",NA,"pinging_target_expectations 4.0.osexp","C:\Users\etp-cp-ping\Desktop\LocalPC-EXP",75,"no","mono","no",18,"no","white","no","yes",1050,NA,100,"psycho",7,0,7,"C:/Users/etp-cp-ping/Desktop/LocalPC-EXP/subject-19.csv","psycho",2,8,8,"Lentiform Loewenfeld","3.3.8","['hori', 'vert', 'hori', 'vert', 'vert', 'vert', 'hori', 'hori']","no",209,"None","yes",0,NA,2,"legacy",NA,1024,2,48000,-16,"experiment",19,"odd","red","no",5,"circle",404458.8656,404477.9595,404477.9996,NA,410266.8706,NA,NA,93390.4757,3618.09479999965,NA,93390.4981999999,429289.8041,431947.5853,NA,NA,NA,NA,3618.17350000001,410988.912,NA,NA,429289.8183,411360.2344,429289.754,"New experiment",19,"[0]","dist_present",56,61,"yes","yes",1680,NA,NA,NA,NA,"NR","NR","lp",NA,"Right",NA,NA,NA,NA,"practice",3,"NR","in"
"9",727.325400000147,5851.34019999998,5851.34019999998,5,5,"y",5,"['7', '8', '3', 'space']","n","#000000","no",432616.5464,1,"neutral","psycho","psycho","psycho",0,"uniform",1,0,0,0,NA,0,0,NA,0,0,0,0,8,8,NA,NA,NA,NA,0,0,0,NA,8,0,8,73.2296414732588,"Fri Oct  1 11:29:35 2021","The main experiment item","yes","red","no","2","circle",NA,"pinging_target_expectations 4.0.osexp","C:\Users\etp-cp-ping\Desktop\LocalPC-EXP",75,"no","mono","no",18,"no","white","no","yes",1050,NA,100,"psycho",8,0,8,"C:/Users/etp-cp-ping/Desktop/LocalPC-EXP/subject-19.csv","psycho",3,9,9,"Lentiform Loewenfeld","3.3.8","['hori', 'vert', 'vert', 'hori', 'hori', 'vert', 'vert', 'hori']","no",209,"None","yes",0,NA,2,"legacy",NA,1024,2,48000,-16,"experiment",19,"odd","green","no",4,"diamond",404458.8656,404477.9595,404477.9996,NA,410266.8706,NA,NA,93390.4757,3618.09479999965,NA,93390.4981999999,431977.9293,434587.5166,NA,NA,NA,NA,3618.17350000001,410988.912,NA,NA,431977.9434,411360.2344,431977.8792,"New experiment",19,"[0]","dist_present",56,53,"yes","yes",1680,NA,NA,NA,NA,"NR","NR","lp","Left",NA,"Left",NA,NA,NA,"practice",5,"NR","in"
"10",522.7374000001,6374.07760000008,6374.07760000008,6,6,"y",5,"['7', '8', '3', 'space']","n","#000000","no",432616.5464,1,"neutral","psycho","psycho","psycho",0,"uniform",1,0,0,0,NA,0,0,NA,0,0,0,0,9,9,NA,NA,NA,NA,0,0,0,NA,9,0,9,73.2296414732588,"Fri Oct  1 11:29:35 2021","The main experiment item","yes","green","no","5","diamond",NA,"pinging_target_expectations 4.0.osexp","C:\Users\etp-cp-ping\Desktop\LocalPC-EXP",75,"no","mono","no",18,"no","white","no","yes",1050,NA,100,"psycho",9,0,9,"C:/Users/etp-cp-ping/Desktop/LocalPC-EXP/subject-19.csv","psycho",3,10,10,"Lentiform Loewenfeld","3.3.8","['vert', 'vert', 'vert', 'hori', 'hori', 'hori', 'hori', 'vert']","yes",109,"diamond","yes",0,NA,2,"legacy",NA,1024,2,48000,-16,"experiment",19,"odd","red","no",3,"circle",404458.8656,404477.9595,404477.9996,NA,410266.8706,NA,NA,93390.4757,3618.09479999965,NA,93390.4981999999,434618.9807,437019.587,NA,NA,NA,NA,3618.17350000001,410988.912,NA,NA,434618.9948,411360.2344,434618.9307,"New experiment",19,"[0]","dist_present",56,46,"yes","yes",1680,NA,NA,NA,NA,"NR","NR","lp",NA,NA,NA,NA,NA,NA,"practice",4,"NR","in"
"11",681.335700000112,7055.41330000019,7055.41330000019,7,7,"y",5,"['7', '8', '3', 'space']","n","#000000","no",432616.5464,1,"neutral","psycho","psycho","psycho",0,"uniform",1,0,0,0,NA,0,0,NA,0,0,0,0,10,10,NA,NA,NA,NA,0,0,0,NA,10,0,10,73.2296414732588,"Fri Oct  1 11:29:35 2021","The main experiment item","yes","red","no","6","circle",NA,"pinging_target_expectations 4.0.osexp","C:\Users\etp-cp-ping\Desktop\LocalPC-EXP",75,"no","mono","no",18,"no","white","no","yes",1050,NA,100,"psycho",10,0,10,"C:/Users/etp-cp-ping/Desktop/LocalPC-EXP/subject-19.csv","psycho",3,11,11,"Lentiform Loewenfeld","3.3.8","['vert', 'hori', 'vert', 'hori', 'hori', 'vert', 'hori', 'vert']","yes",109,"diamond","yes",0,NA,2,"legacy",NA,1024,2,48000,-16,"experiment",19,"odd","green","no",1,"diamond",404458.8656,404477.9595,404477.9996,NA,410266.8706,NA,NA,93390.4757,3618.09479999965,NA,93390.4981999999,437050.0859,439563.5187,NA,NA,NA,NA,3618.17350000001,410988.912,NA,NA,437050.1001,411360.2344,437050.0351,"New experiment",19,"[0]","dist_present",56,27,"yes","yes",1680,NA,NA,NA,NA,"NR","NR","lp",NA,NA,NA,NA,NA,NA,"practice",3,"NR","in"
"12",651.4822999998,7706.89559999999,7706.89559999999,8,8,"y",5,"['7', '8', '3', 'space']","n","#000000","no",432616.5464,1,"neutral","psycho","psycho","psycho",0,"uniform",1,0,0,0,NA,0,0,NA,0,0,0,0,11,11,NA,NA,NA,NA,0,0,0,NA,11,0,11,73.2296414732588,"Fri Oct  1 11:29:35 2021","The main experiment item","yes","green","no","None","diamond",NA,"pinging_target_expectations 4.0.osexp","C:\Users\etp-cp-ping\Desktop\LocalPC-EXP",75,"no","mono","no",18,"no","white","no","yes",1050,NA,100,"psycho",11,0,11,"C:/Users/etp-cp-ping/Desktop/LocalPC-EXP/subject-19.csv","psycho",3,12,12,"Lentiform Loewenfeld","3.3.8","['hori', 'hori', 'vert', 'vert', 'vert', 'hori', 'vert', 'hori']","yes",109,"diamond","yes",0,NA,2,"legacy",NA,1024,2,48000,-16,"experiment",19,"odd","red","no",0,"circle",404458.8656,404477.9595,404477.9996,NA,410266.8706,NA,NA,93390.4757,3618.09479999965,NA,93390.4981999999,439594.1795,442155.4871,NA,NA,NA,NA,3618.17350000001,410988.912,NA,NA,439594.1937,411360.2344,439594.1295,"New experiment",19,"[0]","dist_absent",56,19,"yes","yes",1680,NA,NA,NA,NA,"NR","NR","lp",NA,NA,NA,NA,NA,NA,"practice",1,"NR","in"
"13",1035.1258000001,8742.02140000009,8742.02140000009,9,9,"y",5,"['7', '8', '3', 'space']","n","#000000","no",432616.5464,1,"neutral","psycho","psycho","psycho",0,"uniform",1,0,0,0,NA,0,0,NA,0,0,0,0,12,12,NA,NA,NA,NA,0,0,0,NA,12,0,12,73.2296414732588,"Fri Oct  1 11:29:35 2021","The main experiment item","yes","red","no","None","circle",NA,"pinging_target_expectations 4.0.osexp","C:\Users\etp-cp-ping\Desktop\LocalPC-EXP",75,"no","mono","no",18,"no","white","no","yes",1050,NA,100,"psycho",12,0,12,"C:/Users/etp-cp-ping/Desktop/LocalPC-EXP/subject-19.csv","psycho",3,13,13,"Lentiform Loewenfeld","3.3.8","['vert', 'vert', 'vert', 'hori', 'hori', 'hori', 'vert', 'hori']","yes",109,"circles","yes",0,NA,2,"legacy",NA,1024,2,48000,-16,"experiment",19,"odd","green","no",1,"diamond",404458.8656,404477.9595,404477.9996,NA,410266.8706,NA,NA,93390.4757,3618.09479999965,NA,93390.4981999999,442185.9405,445115.5745,NA,NA,NA,NA,3618.17350000001,410988.912,NA,NA,442185.9545,411360.2344,442185.8875,"New experiment",19,"[0]","dist_absent",56,29,"yes","yes",1680,NA,NA,NA,NA,"NR","R","lp",NA,"Left",NA,NA,NA,NA,"practice",0,"NR","in"
"14",658.979500000016,9401.0009000001,9401.0009000001,10,10,"y",5,"['7', '8', '3', 'space']","n","#000000","no",432616.5464,1,"neutral","psycho","psycho","psycho",0,"uniform",1,0,0,0,NA,0,0,NA,0,0,0,0,13,13,NA,NA,NA,NA,0,0,0,NA,13,0,13,73.2296414732588,"Fri Oct  1 11:29:35 2021","The main experiment item","yes","green","no","1","diamond",NA,"pinging_target_expectations 4.0.osexp","C:\Users\etp-cp-ping\Desktop\LocalPC-EXP",75,"no","mono","no",18,"no","white","no","yes",1050,NA,100,"psycho",13,0,13,"C:/Users/etp-cp-ping/Desktop/LocalPC-EXP/subject-19.csv","psycho",3,14,14,"Lentiform Loewenfeld","3.3.8","['hori', 'hori', 'hori', 'vert', 'hori', 'vert', 'vert', 'vert']","yes",109,"diamond","yes",0,NA,2,"legacy",NA,1024,2,48000,-16,"experiment",19,"odd","red","no",4,"circle",404458.8656,404477.9595,404477.9996,NA,410266.8706,NA,NA,93390.4757,3618.09479999965,NA,93390.4981999999,445145.8724,447755.4816,NA,NA,NA,NA,3618.17350000001,410988.912,NA,NA,445145.8865,411360.2344,445145.8225,"New experiment",19,"[0]","dist_present",56,52,"yes","yes",1680,NA,NA,NA,NA,"NR","NR","lp","Left",NA,NA,NA,NA,NA,"practice",1,"NR","in"
"15",551.25939999969,9952.26029999979,9952.26029999979,10,10,"y",5,"['7', '8', '3', 'space']","n","#000000","no",432616.5464,1,"neutral","psycho","psycho","psycho",0,"uniform",0,0,0,0,NA,0,0,NA,0,0,0,0,14,14,NA,NA,NA,NA,0,0,0,NA,14,0,14,73.2296414732588,"Fri Oct  1 11:29:35 2021","The main experiment item","yes","green","no","None","diamond",NA,"pinging_target_expectations 4.0.osexp","C:\Users\etp-cp-ping\Desktop\LocalPC-EXP",75,"no","mono","no",18,"no","white","no","yes",1050,NA,100,"psycho",14,0,14,"C:/Users/etp-cp-ping/Desktop/LocalPC-EXP/subject-19.csv","psycho",3,15,15,"Lentiform Loewenfeld","3.3.8","['hori', 'vert', 'hori', 'hori', 'vert', 'vert', 'hori', 'vert']","no",209,"None","yes",0,NA,2,"legacy",NA,1024,2,48000,-16,"experiment",19,"odd","red","no",4,"circle",404458.8656,404477.9595,404477.9996,NA,410266.8706,NA,NA,93390.4757,3618.09479999965,NA,93390.4981999999,447785.8871,450251.4893,NA,NA,NA,NA,3618.17350000001,410988.912,NA,NA,447785.9012,411360.2344,447785.8369,"New experiment",19,"[0]","dist_absent",56,59,"yes","yes",1680,NA,NA,NA,NA,"R","NR","lp",NA,NA,NA,NA,NA,NA,"practice",4,"NR","in"
"16",558.180300000007,10510.4405999998,10510.4405999998,11,11,"y",5,"['7', '8', '3', 'space']","n","#000000","no",432616.5464,1,"neutral","psycho","psycho","psycho",0,"uniform",1,0,0,0,NA,0,0,NA,0,0,0,0,15,15,NA,NA,NA,NA,0,0,0,NA,15,0,15,73.2296414732588,"Fri Oct  1 11:29:35 2021","The main experiment item","yes","red","no","None","circle",NA,"pinging_target_expectations 4.0.osexp","C:\Users\etp-cp-ping\Desktop\LocalPC-EXP",75,"no","mono","no",18,"no","white","no","yes",1050,NA,100,"psycho",15,0,15,"C:/Users/etp-cp-ping/Desktop/LocalPC-EXP/subject-19.csv","psycho",3,16,16,"Lentiform Loewenfeld","3.3.8","['hori', 'hori', 'vert', 'hori', 'hori', 'vert', 'vert', 'vert']","yes",109,"circles","yes",0,NA,2,"legacy",NA,1024,2,48000,-16,"experiment",19,"odd","green","no",5,"diamond",404458.8656,404477.9595,404477.9996,NA,410266.8706,NA,NA,93390.4757,3618.09479999965,NA,93390.4981999999,450281.7047,452699.4572,NA,NA,NA,NA,3618.17350000001,410988.912,NA,NA,450281.7189,411360.2344,450281.6543,"New experiment",19,"[0]","dist_absent",56,69,"yes","yes",1680,NA,NA,NA,NA,"NR","R","lp",NA,"Right",NA,NA,NA,NA,"practice",4,"R","in"
"17",801.326100000122,11311.7666999999,11311.7666999999,11,11,"y",5,"['7', '8', '3', 'space']","n","#000000","no",432616.5464,1,"neutral","psycho","psycho","psycho",0,"uniform",0,0,0,0,NA,0,0,NA,0,0,0,0,16,16,NA,NA,NA,NA,0,0,0,NA,16,0,16,73.2296414732588,"Fri Oct  1 11:29:35 2021","The main experiment item","yes","green","no","7","diamond",NA,"pinging_target_expectations 4.0.osexp","C:\Users\etp-cp-ping\Desktop\LocalPC-EXP",75,"no","mono","no",18,"no","white","no","yes",1050,NA,100,"psycho",16,0,16,"C:/Users/etp-cp-ping/Desktop/LocalPC-EXP/subject-19.csv","psycho",3,17,17,"Lentiform Loewenfeld","3.3.8","['vert', 'hori', 'hori', 'hori', 'vert', 'vert', 'hori', 'vert']","no",209,"None","yes",0,NA,2,"legacy",NA,1024,2,48000,-16,"experiment",19,"odd","red","no",0,"circle",404458.8656,404477.9595,404477.9996,NA,410266.8706,NA,NA,93390.4757,3618.09479999965,NA,93390.4981999999,452729.5935,455467.4765,NA,NA,NA,NA,3618.17350000001,410988.912,NA,NA,452729.6075,411360.2344,452729.5437,"New experiment",19,"[0]","dist_present",56,18,"yes","yes",1680,NA,NA,NA,NA,"NR","NR","lp","Right",NA,NA,NA,NA,NA,"practice",5,"NR","in"
"18",1014.41230000003,12326.1789999999,12326.1789999999,12,12,"y",5,"['7', '8', '3', 'space']","n","#000000","no",432616.5464,1,"neutral","psycho","psycho","psycho",0,"uniform",1,0,0,0,NA,0,0,NA,0,0,0,0,17,17,NA,NA,NA,NA,0,0,0,NA,17,0,17,73.2296414732588,"Fri Oct  1 11:29:35 2021","The main experiment item","yes","red","no","None","circle",NA,"pinging_target_expectations 4.0.osexp","C:\Users\etp-cp-ping\Desktop\LocalPC-EXP",75,"no","mono","no",18,"no","white","no","yes",1050,NA,100,"psycho",17,0,17,"C:/Users/etp-cp-ping/Desktop/LocalPC-EXP/subject-19.csv","psycho",3,18,18,"Lentiform Loewenfeld","3.3.8","['vert', 'hori', 'vert', 'vert', 'hori', 'vert', 'hori', 'hori']","no",209,"None","yes",0,NA,2,"legacy",NA,1024,2,48000,-16,"experiment",19,"odd","green","no",5,"diamond",404458.8656,404477.9595,404477.9996,NA,410266.8706,NA,NA,93390.4757,3618.09479999965,NA,93390.4981999999,455499.0915,458635.6329,NA,NA,NA,NA,3618.17350000001,410988.912,NA,NA,455499.1056,411360.2344,455499.0427,"New experiment",19,"[0]","dist_absent",56,69,"yes","yes",1680,NA,NA,NA,NA,"NR","NR","lp",NA,"Right",NA,NA,NA,NA,"practice",0,"NR","in"
"19",765.311100000399,13091.4901000003,13091.4901000003,12,12,"y",5,"['7', '8', '3', 'space']","n","#000000","no",432616.5464,1,"neutral","psycho","psycho","psycho",0,"uniform",0,0,0,0,NA,0,0,NA,0,0,0,0,18,18,NA,NA,NA,NA,0,0,0,NA,18,0,18,73.2296414732588,"Fri Oct  1 11:29:35 2021","The main experiment item","yes","red","no","3","diamond",NA,"pinging_target_expectations 4.0.osexp","C:\Users\etp-cp-ping\Desktop\LocalPC-EXP",75,"no","mono","no",18,"no","white","no","yes",1050,NA,100,"psycho",18,0,18,"C:/Users/etp-cp-ping/Desktop/LocalPC-EXP/subject-19.csv","psycho",3,19,19,"Lentiform Loewenfeld","3.3.8","['vert', 'hori', 'hori', 'vert', 'hori', 'vert', 'hori', 'vert']","yes",109,"diamond","yes",0,NA,2,"legacy",NA,1024,2,48000,-16,"experiment",19,"odd","green","no",1,"circle",404458.8656,404477.9595,404477.9996,NA,410266.8706,NA,NA,93390.4757,3618.09479999965,NA,93390.4981999999,458667.5749,461339.5,NA,NA,NA,NA,3618.17350000001,410988.912,NA,NA,458667.589,411360.2344,458667.5241,"New experiment",19,"[0]","dist_present",56,24,"yes","yes",1680,NA,NA,NA,NA,"NR","NR","lp",NA,NA,NA,NA,NA,NA,"practice",5,"NR","in"
"20",728.969100000046,13820.4592000004,13820.4592000004,12,12,"y",5,"['7', '8', '3', 'space']","n","#000000","no",432616.5464,1,"neutral","psycho","psycho","psycho",0,"uniform",0,0,0,0,NA,0,0,NA,0,0,0,0,19,19,NA,NA,NA,NA,0,0,0,NA,19,0,19,73.2296414732588,"Fri Oct  1 11:29:35 2021","The main experiment item","yes","green","no","6","diamond",NA,"pinging_target_expectations 4.0.osexp","C:\Users\etp-cp-ping\Desktop\LocalPC-EXP",75,"no","mono","no",18,"no","white","no","yes",1050,NA,100,"psycho",19,0,19,"C:/Users/etp-cp-ping/Desktop/LocalPC-EXP/subject-19.csv","psycho",3,20,20,"Lentiform Loewenfeld","3.3.8","['vert', 'hori', 'vert', 'vert', 'vert', 'hori', 'hori', 'hori']","no",209,"None","yes",0,NA,2,"legacy",NA,1024,2,48000,-16,"experiment",19,"odd","red","no",3,"circle",404458.8656,404477.9595,404477.9996,NA,410266.8706,NA,NA,93390.4757,3618.09479999965,NA,93390.4981999999,461369.964,464171.4325,NA,NA,NA,NA,3618.17350000001,410988.912,NA,NA,461369.9781,411360.2344,461369.9111,"New experiment",19,"[0]","dist_present",56,47,"yes","yes",1680,NA,NA,NA,NA,"NR","NR","lp",NA,NA,NA,NA,NA,NA,"practice",1,"NR","in"
"21",1956.66329999996,15777.1225000003,15777.1225000003,13,13,"y",5,"['7', '8', '3', 'space']","n","#000000","no",464687.1043,1,"neutral","psycho","psycho","psycho",0,"uniform",1,0,0,0,NA,0,0,NA,0,0,0,0,20,20,NA,NA,NA,NA,0,0,0,NA,20,0,20,73.2296414732588,"Fri Oct  1 11:29:35 2021","The main experiment item","yes","red","no","4","circle",NA,"pinging_target_expectations 4.0.osexp","C:\Users\etp-cp-ping\Desktop\LocalPC-EXP",75,"no","mono","no",18,"no","white","no","yes",1050,NA,100,"psycho",20,0,20,"C:/Users/etp-cp-ping/Desktop/LocalPC-EXP/subject-19.csv","psycho",4,21,21,"Lentiform Loewenfeld","3.3.8","['vert', 'hori', 'hori', 'vert', 'hori', 'vert', 'hori', 'vert']","yes",109,"circles","yes",0,NA,2,"legacy",NA,1024,2,48000,-16,"experiment",19,"odd","green","no",7,"diamond",404458.8656,404477.9595,404477.9996,NA,410266.8706,NA,NA,93390.4757,3618.09479999965,NA,93390.4981999999,464201.9134,467995.5718,NA,NA,NA,NA,3618.17350000001,410988.912,NA,NA,464201.9278,411360.2344,464201.8647,"New experiment",19,"[0]","dist_present",56,85,"yes","yes",1680,NA,NA,NA,NA,"NR","NR","lp",NA,"Right",NA,NA,NA,NA,"practice",3,"NR","in"
"22",1302.32079999999,17079.4433000003,17079.4433000003,13,13,"y",5,"['7', '8', '3', 'space']","n","#000000","no",464687.1043,1,"neutral","psycho","psycho","psycho",0,"uniform",0,0,0,0,NA,0,0,NA,0,0,0,0,21,21,NA,NA,NA,NA,0,0,0,NA,21,0,21,73.2296414732588,"Fri Oct  1 11:29:35 2021","The main experiment item","yes","red","no","1","diamond",NA,"pinging_target_expectations 4.0.osexp","C:\Users\etp-cp-ping\Desktop\LocalPC-EXP",75,"no","mono","no",18,"no","white","no","yes",1050,NA,100,"psycho",21,0,21,"C:/Users/etp-cp-ping/Desktop/LocalPC-EXP/subject-19.csv","psycho",4,22,22,"Lentiform Loewenfeld","3.3.8","['vert', 'vert', 'hori', 'vert', 'vert', 'hori', 'hori', 'hori']","yes",109,"circles","yes",0,NA,2,"legacy",NA,1024,2,48000,-16,"experiment",19,"odd","green","no",3,"circle",404458.8656,404477.9595,404477.9996,NA,410266.8706,NA,NA,93390.4757,3618.09479999965,NA,93390.4981999999,468025.9933,471211.438,NA,NA,NA,NA,3618.17350000001,410988.912,NA,NA,468026.0075,411360.2344,468025.9424,"New experiment",19,"[0]","dist_present",56,42,"yes","yes",1680,NA,NA,NA,NA,"NR","NR","lp",NA,NA,NA,NA,NA,NA,"practice",7,"NR","in"
"23",1123.57949999976,18203.0228000001,18203.0228000001,14,14,"y",5,"['7', '8', '3', 'space']","n","#000000","no",464687.1043,1,"neutral","psycho","psycho","psycho",0,"uniform",1,0,0,0,NA,0,0,NA,0,0,0,0,22,22,NA,NA,NA,NA,0,0,0,NA,22,0,22,73.2296414732588,"Fri Oct  1 11:29:35 2021","The main experiment item","yes","green","no","1","circle",NA,"pinging_target_expectations 4.0.osexp","C:\Users\etp-cp-ping\Desktop\LocalPC-EXP",75,"no","mono","no",18,"no","white","no","yes",1050,NA,100,"psycho",22,0,22,"C:/Users/etp-cp-ping/Desktop/LocalPC-EXP/subject-19.csv","psycho",4,23,23,"Lentiform Loewenfeld","3.3.8","['hori', 'vert', 'hori', 'hori', 'vert', 'vert', 'hori', 'vert']","yes",109,"circles","yes",0,NA,2,"legacy",NA,1024,2,48000,-16,"experiment",19,"odd","red","no",2,"diamond",404458.8656,404477.9595,404477.9996,NA,410266.8706,NA,NA,93390.4757,3618.09479999965,NA,93390.4981999999,471241.6004,474427.462,NA,NA,NA,NA,3618.17350000001,410988.912,NA,NA,471241.6146,411360.2344,471241.5512,"New experiment",19,"[0, 73.23749104942866]","dist_present",56,32,"yes","yes",1680,NA,NA,NA,NA,"NR","R","lp",NA,NA,NA,NA,NA,NA,"practice",3,"NR","in"
"24",1118.27950000041,19321.3023000005,19321.3023000005,15,15,"y",5,"['7', '8', '3', 'space']","n","#000000","no",464687.1043,1,"neutral","psycho","psycho","psycho",0,"uniform",1,0,0,0,NA,0,0,NA,0,0,0,0,23,23,NA,NA,NA,NA,0,0,0,NA,23,0,23,73.2296414732588,"Fri Oct  1 11:29:35 2021","The main experiment item","yes","green","no","4","circle",NA,"pinging_target_expectations 4.0.osexp","C:\Users\etp-cp-ping\Desktop\LocalPC-EXP",75,"no","mono","no",18,"no","white","no","yes",1050,NA,100,"psycho",23,0,23,"C:/Users/etp-cp-ping/Desktop/LocalPC-EXP/subject-19.csv","psycho",4,24,24,"Lentiform Loewenfeld","3.3.8","['vert', 'hori', 'hori', 'hori', 'vert', 'hori', 'vert', 'vert']","no",209,"None","yes",0,NA,2,"legacy",NA,1024,2,48000,-16,"experiment",19,"odd","red","no",2,"diamond",404458.8656,404477.9595,404477.9996,NA,410266.8706,NA,NA,93390.4757,3618.09479999965,NA,93390.4981999999,474457.8288,477387.4429,NA,NA,NA,NA,3618.17350000001,410988.912,NA,NA,474457.8426,411360.2344,474457.7775,"New experiment",19,"[0]","dist_present",56,35,"yes","yes",1680,NA,NA,NA,NA,"R","NR","lp",NA,"Left",NA,"Left",NA,NA,"practice",2,"NR","in"
"25",1043.34729999985,20364.6496000004,20364.6496000004,16,16,"y",5,"['7', '8', '3', 'space']","n","#000000","no",464687.1043,1,"neutral","psycho","psycho","psycho",0,"uniform",1,0,0,0,NA,0,0,NA,0,0,0,0,24,24,NA,NA,NA,NA,0,0,0,NA,24,0,24,73.2296414732588,"Fri Oct  1 11:29:35 2021","The main experiment item","yes","green","no","None","circle",NA,"pinging_target_expectations 4.0.osexp","C:\Users\etp-cp-ping\Desktop\LocalPC-EXP",75,"no","mono","no",18,"no","white","no","yes",1050,NA,100,"psycho",24,0,24,"C:/Users/etp-cp-ping/Desktop/LocalPC-EXP/subject-19.csv","psycho",4,25,25,"Lentiform Loewenfeld","3.3.8","['vert', 'vert', 'hori', 'hori', 'vert', 'hori', 'hori', 'vert']","no",209,"None","yes",0,NA,2,"legacy",NA,1024,2,48000,-16,"experiment",19,"odd","red","no",6,"diamond",404458.8656,404477.9595,404477.9996,NA,410266.8706,NA,NA,93390.4757,3618.09479999965,NA,93390.4981999999,477417.8643,480219.4843,NA,NA,NA,NA,3618.17350000001,410988.912,NA,NA,477417.8784,411360.2344,477417.8147,"New experiment",19,"[0]","dist_absent",56,79,"yes","yes",1680,NA,NA,NA,NA,"NR","NR","lp",NA,"Right",NA,"Right",NA,NA,"practice",2,"R","in"
"26",1331.43429999973,21696.0839000001,21696.0839000001,17,17,"y",5,"['7', '8', '3', 'space']","n","#000000","no",464687.1043,1,"neutral","psycho","psycho","psycho",0,"uniform",1,0,0,0,NA,0,0,NA,0,0,0,0,25,25,NA,NA,NA,NA,0,0,0,NA,25,0,25,73.2296414732588,"Fri Oct  1 11:29:35 2021","The main experiment item","yes","red","no","2","circle",NA,"pinging_target_expectations 4.0.osexp","C:\Users\etp-cp-ping\Desktop\LocalPC-EXP",75,"no","mono","no",18,"no","white","no","yes",1050,NA,100,"psycho",25,0,25,"C:/Users/etp-cp-ping/Desktop/LocalPC-EXP/subject-19.csv","psycho",4,26,26,"Lentiform Loewenfeld","3.3.8","['vert', 'vert', 'hori', 'hori', 'vert', 'vert', 'hori', 'hori']","no",209,"None","yes",0,NA,2,"legacy",NA,1024,2,48000,-16,"experiment",19,"odd","green","no",1,"diamond",404458.8656,404477.9595,404477.9996,NA,410266.8706,NA,NA,93390.4757,3618.09479999965,NA,93390.4981999999,480249.7293,483659.4376,NA,NA,NA,NA,3618.17350000001,410988.912,NA,NA,480249.7432,411360.2344,480249.6785,"New experiment",19,"[0]","dist_present",56,23,"yes","yes",1680,NA,NA,NA,NA,"NR","NR","lp",NA,NA,NA,NA,NA,NA,"practice",6,"NR","in"
"27",776.454800000007,22472.5387000001,22472.5387000001,17,17,"y",5,"['7', '8', '3', 'space']","n","#000000","no",464687.1043,1,"neutral","psycho","psycho","psycho",0,"uniform",0,0,0,0,NA,0,0,NA,0,0,0,0,26,26,NA,NA,NA,NA,0,0,0,NA,26,0,26,73.2296414732588,"Fri Oct  1 11:29:35 2021","The main experiment item","yes","red","no","6","diamond",NA,"pinging_target_expectations 4.0.osexp","C:\Users\etp-cp-ping\Desktop\LocalPC-EXP",75,"no","mono","no",18,"no","white","no","yes",1050,NA,100,"psycho",26,0,26,"C:/Users/etp-cp-ping/Desktop/LocalPC-EXP/subject-19.csv","psycho",4,27,27,"Lentiform Loewenfeld","3.3.8","['hori', 'hori', 'hori', 'vert', 'vert', 'vert', 'vert', 'hori']","no",209,"None","yes",0,NA,2,"legacy",NA,1024,2,48000,-16,"experiment",19,"odd","green","no",2,"circle",404458.8656,404477.9595,404477.9996,NA,410266.8706,NA,NA,93390.4757,3618.09479999965,NA,93390.4981999999,483689.705,486443.4214,NA,NA,NA,NA,3618.17350000001,410988.912,NA,NA,483689.7191,411360.2344,483689.655,"New experiment",19,"[0]","dist_present",56,37,"yes","yes",1680,NA,NA,NA,NA,"NR","NR","lp",NA,NA,NA,NA,NA,NA,"practice",1,"NR","in"
"28",1369.72969999985,23842.2683999999,23842.2683999999,18,18,"y",5,"['7', '8', '3', 'space']","n","#000000","no",464687.1043,1,"neutral","psycho","psycho","psycho",0,"uniform",1,0,0,0,NA,0,0,NA,0,0,0,0,27,27,NA,NA,NA,NA,0,0,0,NA,27,0,27,73.2296414732588,"Fri Oct  1 11:29:35 2021","The main experiment item","yes","green","no","5","circle",NA,"pinging_target_expectations 4.0.osexp","C:\Users\etp-cp-ping\Desktop\LocalPC-EXP",75,"no","mono","no",18,"no","white","no","yes",1050,NA,100,"psycho",27,0,27,"C:/Users/etp-cp-ping/Desktop/LocalPC-EXP/subject-19.csv","psycho",4,28,28,"Lentiform Loewenfeld","3.3.8","['hori', 'vert', 'vert', 'hori', 'vert', 'vert', 'hori', 'hori']","yes",109,"circles","yes",0,NA,2,"legacy",NA,1024,2,48000,-16,"experiment",19,"odd","red","no",6,"diamond",404458.8656,404477.9595,404477.9996,NA,410266.8706,NA,NA,93390.4757,3618.09479999965,NA,93390.4981999999,486473.797,489595.4045,NA,NA,NA,NA,3618.17350000001,410988.912,NA,NA,486473.8111,411360.2344,486473.7484,"New experiment",19,"[0, 78.07642000527522, 82.18179645431083, 82.02267199198229, 84.24265934963157, 83.21395387278038, 81.6333265278342, 79.73410397330667, 76.62581068597214]","dist_present",56,76,"yes","yes",1680,NA,NA,NA,NA,"NR","NR","lp",NA,NA,NA,NA,NA,NA,"practice",2,"NR","in"
"29",645.035500000173,24487.3039000001,24487.3039000001,19,19,"y",5,"['7', '8', '3', 'space']","n","#000000","no",464687.1043,1,"neutral","psycho","psycho","psycho",0,"uniform",1,0,0,0,NA,0,0,NA,0,0,0,0,28,28,NA,NA,NA,NA,0,0,0,NA,28,0,28,73.2296414732588,"Fri Oct  1 11:29:35 2021","The main experiment item","yes","green","no","3","circle",NA,"pinging_target_expectations 4.0.osexp","C:\Users\etp-cp-ping\Desktop\LocalPC-EXP",75,"no","mono","no",18,"no","white","no","yes",1050,NA,100,"psycho",28,0,28,"C:/Users/etp-cp-ping/Desktop/LocalPC-EXP/subject-19.csv","psycho",4,29,29,"Lentiform Loewenfeld","3.3.8","['hori', 'vert', 'hori', 'hori', 'vert', 'vert', 'vert', 'hori']","no",209,"None","yes",0,NA,2,"legacy",NA,1024,2,48000,-16,"experiment",19,"odd","red","no",6,"diamond",404458.8656,404477.9595,404477.9996,NA,410266.8706,NA,NA,93390.4757,3618.09479999965,NA,93390.4981999999,489626.0453,492075.4161,NA,NA,NA,NA,3618.17350000001,410988.912,NA,NA,489626.0597,411360.2344,489625.9941,"New experiment",19,"[0]","dist_present",56,74,"yes","yes",1680,NA,NA,NA,NA,"R","NR","lp",NA,NA,NA,NA,NA,NA,"practice",6,"NR","in"
"30",630.548099999956,25117.8520000001,25117.8520000001,19,19,"y",5,"['7', '8', '3', 'space']","n","#000000","no",492759.129,1,"neutral","psycho","psycho","psycho",0,"uniform",0,0,0,0,NA,0,0,NA,0,0,0,0,29,29,NA,NA,NA,NA,0,0,0,NA,29,0,29,73.2296414732588,"Fri Oct  1 11:29:35 2021","The main experiment item","yes","green","no","0","diamond",NA,"pinging_target_expectations 4.0.osexp","C:\Users\etp-cp-ping\Desktop\LocalPC-EXP",75,"no","mono","no",18,"no","white","no","yes",1050,NA,100,"psycho",29,0,29,"C:/Users/etp-cp-ping/Desktop/LocalPC-EXP/subject-19.csv","psycho",5,30,30,"Lentiform Loewenfeld","3.3.8","['hori', 'hori', 'vert', 'hori', 'hori', 'vert', 'vert', 'vert']","yes",109,"diamond","yes",0,NA,2,"legacy",NA,1024,2,48000,-16,"experiment",19,"odd","red","no",2,"circle",404458.8656,404477.9595,404477.9996,NA,410266.8706,NA,NA,93390.4757,3618.09479999965,NA,93390.4981999999,492105.791,494667.4352,NA,NA,NA,NA,3618.17350000001,410988.912,NA,NA,492105.8053,411360.2344,492105.7415,"New experiment",19,"[0]","dist_present",56,31,"yes","yes",1680,NA,NA,NA,NA,"NR","NR","lp",NA,"Left",NA,"Left",NA,NA,"practice",6,"R","in"
"31",684.984400000307,25802.8364000004,25802.8364000004,20,20,"y",5,"['7', '8', '3', 'space']","n","#000000","no",492759.129,1,"neutral","psycho","psycho","psycho",0,"uniform",1,0,0,0,NA,0,0,NA,0,0,0,0,30,30,NA,NA,NA,NA,0,0,0,NA,30,0,30,73.2296414732588,"Fri Oct  1 11:29:35 2021","The main experiment item","yes","red","no","None","circle",NA,"pinging_target_expectations 4.0.osexp","C:\Users\etp-cp-ping\Desktop\LocalPC-EXP",75,"no","mono","no",18,"no","white","no","yes",1050,NA,100,"psycho",30,0,30,"C:/Users/etp-cp-ping/Desktop/LocalPC-EXP/subject-19.csv","psycho",5,31,31,"Lentiform Loewenfeld","3.3.8","['vert', 'vert', 'hori', 'hori', 'hori', 'vert', 'hori', 'vert']","no",209,"None","yes",0,NA,2,"legacy",NA,1024,2,48000,-16,"experiment",19,"odd","green","no",4,"diamond",404458.8656,404477.9595,404477.9996,NA,410266.8706,NA,NA,93390.4757,3618.09479999965,NA,93390.4981999999,494697.8174,497323.3328,NA,NA,NA,NA,3618.17350000001,410988.912,NA,NA,494697.8313,411360.2344,494697.7669,"New experiment",19,"[0, 74.16799310465414, 74.46778175022413, 75.55588244518398, 76.22768983133047, 76.0292833229908, 75.06541727945383, 75.0067492731423, 74.61803995004502, 74.68399749077012, 73.92062858116144, 74.14372089163315, 74.35937669087943, 74.49293998702389, 74.79089130285384, 74.44044474916457, 74.13838753703767, 73.64950440778203, 73.61536291084066, 73.55686515961628, 73.28303869086196, 73.64681779936863, 73.39596881659118, 73.59906994605612, 73.58314964793009, 73.43706067022971, 74.50940815962143, 73.76529159862069, 74.43391416636368, 74.23435051502013, 73.359717284879, 73.50543807276927, 74.16426883596174, 73.79762036795499, 73.56391413519819, 73.29647368188904, 73.36321057930837]","dist_absent",56,59,"yes","yes",1680,NA,NA,NA,NA,"NR","NR","lp",NA,NA,NA,NA,NA,NA,"practice",2,"NR","in"
"32",727.699600000051,26530.5360000004,26530.5360000004,21,21,"y",5,"['7', '8', '3', 'space']","n","#000000","no",492759.129,1,"neutral","psycho","psycho","psycho",0,"uniform",1,0,0,0,NA,0,0,NA,0,0,0,0,31,31,NA,NA,NA,NA,0,0,0,NA,31,0,31,73.2296414732588,"Fri Oct  1 11:29:35 2021","The main experiment item","yes","green","no","1","diamond",NA,"pinging_target_expectations 4.0.osexp","C:\Users\etp-cp-ping\Desktop\LocalPC-EXP",75,"no","mono","no",18,"no","white","no","yes",1050,NA,100,"psycho",31,0,31,"C:/Users/etp-cp-ping/Desktop/LocalPC-EXP/subject-19.csv","psycho",5,32,32,"Lentiform Loewenfeld","3.3.8","['hori', 'vert', 'hori', 'vert', 'hori', 'vert', 'hori', 'vert']","yes",109,"diamond","yes",0,NA,2,"legacy",NA,1024,2,48000,-16,"experiment",19,"odd","red","no",4,"circle",404458.8656,404477.9595,404477.9996,NA,410266.8706,NA,NA,93390.4757,3618.09479999965,NA,93390.4981999999,497353.5754,500011.3332,NA,NA,NA,NA,3618.17350000001,410988.912,NA,NA,497353.5896,411360.2344,497353.526,"New experiment",19,"[0]","dist_present",56,52,"yes","yes",1680,NA,NA,NA,NA,"R","NR","lp","Left",NA,NA,NA,NA,NA,"practice",4,"NR","in"
"33",608.114499999792,27138.6505000002,27138.6505000002,21,21,"y",5,"['7', '8', '3', 'space']","n","#000000","no",492759.129,1,"neutral","psycho","psycho","psycho",0,"uniform",0,0,0,0,NA,0,0,NA,0,0,0,0,32,32,NA,NA,NA,NA,0,0,0,NA,32,0,32,73.2296414732588,"Fri Oct  1 11:29:35 2021","The main experiment item","yes","red","no","3","diamond",NA,"pinging_target_expectations 4.0.osexp","C:\Users\etp-cp-ping\Desktop\LocalPC-EXP",75,"no","mono","no",18,"no","white","no","yes",1050,NA,100,"psycho",32,0,32,"C:/Users/etp-cp-ping/Desktop/LocalPC-EXP/subject-19.csv","psycho",5,33,33,"Lentiform Loewenfeld","3.3.8","['vert', 'vert', 'hori', 'hori', 'hori', 'vert', 'vert', 'hori']","yes",109,"circles","yes",0,NA,2,"legacy",NA,1024,2,48000,-16,"experiment",19,"odd","green","no",0,"circle",404458.8656,404477.9595,404477.9996,NA,410266.8706,NA,NA,93390.4757,3618.09479999965,NA,93390.4981999999,500041.4997,502667.5229,NA,NA,NA,NA,3618.17350000001,410988.912,NA,NA,500041.5138,411360.2344,500041.4495,"New experiment",19,"[0]","dist_present",56,14,"yes","yes",1680,NA,NA,NA,NA,"NR","NR","lp","Left",NA,NA,NA,NA,NA,"practice",4,"R","in"
"34",554.555600000196,27693.2061000004,27693.2061000004,22,22,"y",5,"['7', '8', '3', 'space']","n","#000000","no",492759.129,1,"neutral","psycho","psycho","psycho",0,"uniform",1,0,0,0,NA,0,0,NA,0,0,0,0,33,33,NA,NA,NA,NA,0,0,0,NA,33,0,33,73.2296414732588,"Fri Oct  1 11:29:35 2021","The main experiment item","yes","green","no","2","diamond",NA,"pinging_target_expectations 4.0.osexp","C:\Users\etp-cp-ping\Desktop\LocalPC-EXP",75,"no","mono","no",18,"no","white","no","yes",1050,NA,100,"psycho",33,0,33,"C:/Users/etp-cp-ping/Desktop/LocalPC-EXP/subject-19.csv","psycho",5,34,34,"Lentiform Loewenfeld","3.3.8","['vert', 'hori', 'hori', 'vert', 'vert', 'vert', 'hori', 'hori']","yes",109,"circles","yes",0,NA,2,"legacy",NA,1024,2,48000,-16,"experiment",19,"odd","red","no",6,"circle",404458.8656,404477.9595,404477.9996,NA,410266.8706,NA,NA,93390.4757,3618.09479999965,NA,93390.4981999999,502697.8811,505355.3591,NA,NA,NA,NA,3618.17350000001,410988.912,NA,NA,502697.895,411360.2344,502697.8306,"New experiment",19,"[0]","dist_present",56,73,"yes","yes",1680,NA,NA,NA,NA,"NR","NR","lp",NA,NA,NA,NA,NA,NA,"practice",0,"NR","in"
"35",1073.56130000018,28766.7674000006,28766.7674000006,23,23,"y",5,"['7', '8', '3', 'space']","n","#000000","no",492759.129,1,"neutral","psycho","psycho","psycho",0,"uniform",1,0,0,0,NA,0,0,NA,0,0,0,0,34,34,NA,NA,NA,NA,0,0,0,NA,34,0,34,73.2296414732588,"Fri Oct  1 11:29:35 2021","The main experiment item","yes","green","no","6","circle",NA,"pinging_target_expectations 4.0.osexp","C:\Users\etp-cp-ping\Desktop\LocalPC-EXP",75,"no","mono","no",18,"no","white","no","yes",1050,NA,100,"psycho",34,0,34,"C:/Users/etp-cp-ping/Desktop/LocalPC-EXP/subject-19.csv","psycho",5,35,35,"Lentiform Loewenfeld","3.3.8","['hori', 'vert', 'hori', 'hori', 'vert', 'hori', 'vert', 'vert']","yes",109,"diamond","yes",0,NA,2,"legacy",NA,1024,2,48000,-16,"experiment",19,"odd","red","no",3,"diamond",404458.8656,404477.9595,404477.9996,NA,410266.8706,NA,NA,93390.4757,3618.09479999965,NA,93390.4981999999,505387.1223,508395.3261,NA,NA,NA,NA,3618.17350000001,410988.912,NA,NA,505387.1365,411360.2344,505387.0717,"New experiment",19,"[0]","dist_present",56,47,"yes","yes",1680,NA,NA,NA,NA,"NR","NR","lp",NA,NA,NA,NA,NA,NA,"practice",6,"NR","in"
"36",907.366599999892,29674.1340000005,29674.1340000005,24,24,"y",5,"['7', '8', '3', 'space']","n","#000000","no",492759.129,1,"neutral","psycho","psycho","psycho",0,"uniform",1,0,0,0,NA,0,0,NA,0,0,0,0,35,35,NA,NA,NA,NA,0,0,0,NA,35,0,35,73.2296414732588,"Fri Oct  1 11:29:35 2021","The main experiment item","yes","red","no","2","diamond",NA,"pinging_target_expectations 4.0.osexp","C:\Users\etp-cp-ping\Desktop\LocalPC-EXP",75,"no","mono","no",18,"no","white","no","yes",1050,NA,100,"psycho",35,0,35,"C:/Users/etp-cp-ping/Desktop/LocalPC-EXP/subject-19.csv","psycho",5,36,36,"Lentiform Loewenfeld","3.3.8","['vert', 'hori', 'vert', 'hori', 'hori', 'vert', 'vert', 'hori']","yes",109,"circles","yes",0,NA,2,"legacy",NA,1024,2,48000,-16,"experiment",19,"odd","green","no",6,"circle",404458.8656,404477.9595,404477.9996,NA,410266.8706,NA,NA,93390.4757,3618.09479999965,NA,93390.4981999999,508425.7446,511099.3799,NA,NA,NA,NA,3618.17350000001,410988.912,NA,NA,508425.7587,411360.2344,508425.6943,"New experiment",19,"[0]","dist_present",56,73,"yes","yes",1680,NA,NA,NA,NA,"NR","NR","lp",NA,NA,NA,NA,NA,NA,"practice",3,"NR","in"
"37",615.66240000003,30289.7964000005,30289.7964000005,24,24,"y",5,"['7', '8', '3', 'space']","n","#000000","no",512370.4637,1,"neutral","psycho","psycho","psycho",0,"uniform",0,0,0,0,NA,0,0,NA,0,0,0,0,36,36,NA,NA,NA,NA,0,0,0,NA,36,0,36,73.2296414732588,"Fri Oct  1 11:29:35 2021","The main experiment item","yes","red","no","None","diamond",NA,"pinging_target_expectations 4.0.osexp","C:\Users\etp-cp-ping\Desktop\LocalPC-EXP",75,"no","mono","no",18,"no","white","no","yes",1050,NA,100,"psycho",36,0,36,"C:/Users/etp-cp-ping/Desktop/LocalPC-EXP/subject-19.csv","psycho",6,37,37,"Lentiform Loewenfeld","3.3.8","['hori', 'vert', 'hori', 'hori', 'vert', 'hori', 'vert', 'vert']","yes",109,"diamond","yes",0,NA,2,"legacy",NA,1024,2,48000,-16,"experiment",19,"odd","green","no",7,"circle",404458.8656,404477.9595,404477.9996,NA,410266.8706,NA,NA,93390.4757,3618.09479999965,NA,93390.4981999999,511129.695,513707.44,NA,NA,NA,NA,3618.17350000001,410988.912,NA,NA,511129.709,411360.2344,511129.6455,"New experiment",19,"[0, 73.76214487197363, 75.26487926504258, 75.8716166262022, 75.97541160761098, 76.40296586756283, 78.380747973161, 78.64984221640123, 77.5353426689614, 76.47933718406188, 76.22454063950417, 76.49006852851154, 77.08308632421493, 76.93508186315043, 76.70418883900355, 76.4453502011925, 76.66323144707891, 76.28291141037084, 76.0008383774964, 75.66539557421932, 75.5318442826101, 76.38874952954558, 76.05917431873436, 73.35954249016189, 74.35870136377109, 74.08485995539175, 73.69947776247491, 73.44764796906772, 73.47066423694642, 73.3057261396651, 73.38727065466308, 73.49784002127727]","dist_absent",56,89,"yes","yes",1680,NA,NA,NA,NA,"NR","NR","lp",NA,"Right",NA,NA,NA,NA,"practice",6,"NR","in"
"38",980.895799999882,31270.6922000004,31270.6922000004,25,25,"y",5,"['7', '8', '3', 'space']","n","#000000","no",512370.4637,1,"neutral","psycho","psycho","psycho",0,"uniform",1,0,0,0,NA,0,0,NA,0,0,0,0,37,37,NA,NA,NA,NA,0,0,0,NA,37,0,37,73.2296414732588,"Fri Oct  1 11:29:35 2021","The main experiment item","yes","red","no","0","circle",NA,"pinging_target_expectations 4.0.osexp","C:\Users\etp-cp-ping\Desktop\LocalPC-EXP",75,"no","mono","no",18,"no","white","no","yes",1050,NA,100,"psycho",37,0,37,"C:/Users/etp-cp-ping/Desktop/LocalPC-EXP/subject-19.csv","psycho",6,38,38,"Lentiform Loewenfeld","3.3.8","['vert', 'vert', 'vert', 'hori', 'hori', 'hori', 'hori', 'vert']","no",209,"None","yes",0,NA,2,"legacy",NA,1024,2,48000,-16,"experiment",19,"odd","green","no",5,"diamond",404458.8656,404477.9595,404477.9996,NA,410266.8706,NA,NA,93390.4757,3618.09479999965,NA,93390.4981999999,513737.8236,516523.4749,NA,NA,NA,NA,3618.17350000001,410988.912,NA,NA,513737.8377,411360.2344,513737.7743,"New experiment",19,"[0]","dist_present",56,61,"yes","yes",1680,NA,NA,NA,NA,"NR","NR","lp",NA,"Right",NA,NA,NA,NA,"practice",7,"NR","in"
"39",845.19719999982,32115.8894000002,32115.8894000002,26,26,"y",5,"['7', '8', '3', 'space']","n","#000000","no",517204.0485,1,"neutral","psycho","psycho","psycho",0,"uniform",1,0,0,0,NA,0,0,NA,0,0,0,0,38,38,NA,NA,NA,NA,0,0,0,NA,38,0,38,73.2296414732588,"Fri Oct  1 11:29:35 2021","The main experiment item","yes","green","no","0","circle",NA,"pinging_target_expectations 4.0.osexp","C:\Users\etp-cp-ping\Desktop\LocalPC-EXP",75,"no","mono","no",18,"no","white","no","yes",1050,NA,100,"psycho",38,0,38,"C:/Users/etp-cp-ping/Desktop/LocalPC-EXP/subject-19.csv","psycho",7,39,39,"Lentiform Loewenfeld","3.3.8","['hori', 'hori', 'hori', 'vert', 'vert', 'vert', 'hori', 'vert']","no",209,"None","yes",0,NA,2,"legacy",NA,1024,2,48000,-16,"experiment",19,"odd","red","no",5,"diamond",404458.8656,404477.9595,404477.9996,NA,410266.8706,NA,NA,93390.4757,3618.09479999965,NA,93390.4981999999,516553.8528,519371.4005,NA,NA,NA,NA,3618.17350000001,410988.912,NA,NA,516553.8668,411360.2344,516553.8039,"New experiment",19,"[0]","dist_present",56,61,"yes","yes",1680,NA,NA,NA,NA,"R","R","lp",NA,"Right",NA,NA,NA,NA,"practice",5,"NR","in"
"40",838.043400000082,32953.9328000003,32953.9328000003,27,27,"y",5,"['7', '8', '3', 'space']","n","#000000","no",517204.0485,1,"neutral","psycho","psycho","psycho",0,"uniform",1,0,0,0,NA,0,0,NA,0,0,0,0,39,39,NA,NA,NA,NA,0,0,0,NA,39,0,39,73.2296414732588,"Fri Oct  1 11:29:35 2021","The main experiment item","yes","red","no","None","circle",NA,"pinging_target_expectations 4.0.osexp","C:\Users\etp-cp-ping\Desktop\LocalPC-EXP",75,"no","mono","no",18,"no","white","no","yes",1050,NA,100,"psycho",39,0,39,"C:/Users/etp-cp-ping/Desktop/LocalPC-EXP/subject-19.csv","psycho",7,40,40,"Lentiform Loewenfeld","3.3.8","['hori', 'vert', 'hori', 'hori', 'vert', 'vert', 'vert', 'hori']","no",209,"None","yes",0,NA,2,"legacy",NA,1024,2,48000,-16,"experiment",19,"odd","green","no",7,"diamond",404458.8656,404477.9595,404477.9996,NA,410266.8706,NA,NA,93390.4757,3618.09479999965,NA,93390.4981999999,519403.1203,521963.2911,NA,NA,NA,NA,3618.17350000001,410988.912,NA,NA,519403.1341,411360.2344,519403.0694,"New experiment",19,"[0, 73.44168325851504]","dist_absent",56,89,"yes","yes",1680,NA,NA,NA,NA,"NR","NR","lp",NA,"Right",NA,NA,NA,NA,"practice",5,"R","in"
"41",701.20330000011,33655.1361000004,33655.1361000004,28,28,"y",5,"['7', '8', '3', 'space']","n","#000000","no",517204.0485,1,"neutral","psycho","psycho","psycho",0,"uniform",1,0,0,0,NA,0,0,NA,0,0,0,0,40,40,NA,NA,NA,NA,0,0,0,NA,40,0,40,73.2296414732588,"Fri Oct  1 11:29:35 2021","The main experiment item","yes","red","no","4","circle",NA,"pinging_target_expectations 4.0.osexp","C:\Users\etp-cp-ping\Desktop\LocalPC-EXP",75,"no","mono","no",18,"no","white","no","yes",1050,NA,100,"psycho",40,0,40,"C:/Users/etp-cp-ping/Desktop/LocalPC-EXP/subject-19.csv","psycho",7,41,41,"Lentiform Loewenfeld","3.3.8","['vert', 'vert', 'hori', 'hori', 'hori', 'vert', 'vert', 'hori']","no",209,"None","yes",0,NA,2,"legacy",NA,1024,2,48000,-16,"experiment",19,"odd","green","no",2,"diamond",404458.8656,404477.9595,404477.9996,NA,410266.8706,NA,NA,93390.4757,3618.09479999965,NA,93390.4981999999,521995.1153,524619.284,NA,NA,NA,NA,3618.17350000001,410988.912,NA,NA,521995.1299,411360.2344,521995.065,"New experiment",19,"[0]","dist_present",56,35,"yes","yes",1680,NA,NA,NA,NA,"NR","NR","lp",NA,"Left",NA,"Left",NA,NA,"practice",7,"NR","in"
"42",513.611100000096,34168.7472000005,34168.7472000005,28,28,"y",5,"['7', '8', '3', 'space']","n","#000000","no",517204.0485,1,"neutral","psycho","psycho","psycho",0,"uniform",0,0,0,0,NA,0,0,NA,0,0,0,0,41,41,NA,NA,NA,NA,0,0,0,NA,41,0,41,73.2296414732588,"Fri Oct  1 11:29:35 2021","The main experiment item","yes","green","no","5","diamond",NA,"pinging_target_expectations 4.0.osexp","C:\Users\etp-cp-ping\Desktop\LocalPC-EXP",75,"no","mono","no",18,"no","white","no","yes",1050,NA,100,"psycho",41,0,41,"C:/Users/etp-cp-ping/Desktop/LocalPC-EXP/subject-19.csv","psycho",7,42,42,"Lentiform Loewenfeld","3.3.8","['vert', 'hori', 'vert', 'hori', 'hori', 'hori', 'vert', 'vert']","no",209,"None","yes",0,NA,2,"legacy",NA,1024,2,48000,-16,"experiment",19,"odd","red","no",7,"circle",404458.8656,404477.9595,404477.9996,NA,410266.8706,NA,NA,93390.4757,3618.09479999965,NA,93390.4981999999,524649.4731,526971.3963,NA,NA,NA,NA,3618.17350000001,410988.912,NA,NA,524649.487,411360.2344,524649.4243,"New experiment",19,"[0]","dist_present",56,86,"yes","yes",1680,NA,NA,NA,NA,"NR","NR","lp",NA,NA,NA,NA,NA,NA,"practice",2,"NR","in"
"43",564.209300000104,34732.9565000006,34732.9565000006,29,29,"y",5,"['7', '8', '3', 'space']","n","#000000","no",517204.0485,1,"neutral","psycho","psycho","psycho",0,"uniform",1,0,0,0,NA,0,0,NA,0,0,0,0,42,42,NA,NA,NA,NA,0,0,0,NA,42,0,42,73.2296414732588,"Fri Oct  1 11:29:35 2021","The main experiment item","yes","red","no","None","diamond",NA,"pinging_target_expectations 4.0.osexp","C:\Users\etp-cp-ping\Desktop\LocalPC-EXP",75,"no","mono","no",18,"no","white","no","yes",1050,NA,100,"psycho",42,0,42,"C:/Users/etp-cp-ping/Desktop/LocalPC-EXP/subject-19.csv","psycho",7,43,43,"Lentiform Loewenfeld","3.3.8","['vert', 'vert', 'vert', 'hori', 'hori', 'hori', 'vert', 'hori']","yes",109,"diamond","yes",0,NA,2,"legacy",NA,1024,2,48000,-16,"experiment",19,"odd","green","no",7,"circle",404458.8656,404477.9595,404477.9996,NA,410266.8706,NA,NA,93390.4757,3618.09479999965,NA,93390.4981999999,527001.7315,529483.2813,NA,NA,NA,NA,3618.17350000001,410988.912,NA,NA,527001.7455,411360.2344,527001.682,"New experiment",19,"[0]","dist_absent",56,89,"yes","yes",1680,NA,NA,NA,NA,"R","NR","lp",NA,"Right",NA,NA,NA,NA,"practice",7,"NR","in"
"44",639.204999999958,35372.1615000006,35372.1615000006,29,29,"y",5,"['7', '8', '3', 'space']","n","#000000","no",530067.2901,1,"neutral","psycho","psycho","psycho",0,"uniform",0,0,0,0,NA,0,0,NA,0,0,0,0,43,43,NA,NA,NA,NA,0,0,0,NA,43,0,43,73.2296414732588,"Fri Oct  1 11:29:35 2021","The main experiment item","yes","red","no","None","diamond",NA,"pinging_target_expectations 4.0.osexp","C:\Users\etp-cp-ping\Desktop\LocalPC-EXP",75,"no","mono","no",18,"no","white","no","yes",1050,NA,100,"psycho",43,0,43,"C:/Users/etp-cp-ping/Desktop/LocalPC-EXP/subject-19.csv","psycho",8,44,44,"Lentiform Loewenfeld","3.3.8","['vert', 'hori', 'hori', 'vert', 'vert', 'hori', 'hori', 'vert']","no",209,"None","yes",0,NA,2,"legacy",NA,1024,2,48000,-16,"experiment",19,"odd","green","no",0,"circle",404458.8656,404477.9595,404477.9996,NA,410266.8706,NA,NA,93390.4757,3618.09479999965,NA,93390.4981999999,529513.6246,532315.2308,NA,NA,NA,NA,3618.17350000001,410988.912,NA,NA,529513.6389,411360.2344,529513.5757,"New experiment",19,"[0, 73.62479642208457, 73.2793330223017, 73.41415912319485, 73.9211070723449, 74.05194967048571, 74.25967950375224, 75.4205586866569, 74.69382087858432, 74.62680030478666, 74.55985354233563]","dist_absent",56,19,"yes","yes",1680,NA,NA,NA,NA,"NR","R","lp",NA,NA,NA,NA,NA,NA,"practice",7,"R","in"
"45",1459.98509999982,36832.1466000004,36832.1466000004,30,30,"y",5,"['7', '8', '3', 'space']","n","#000000","no",530067.2901,1,"neutral","psycho","psycho","psycho",0,"uniform",1,0,0,0,NA,0,0,NA,0,0,0,0,44,44,NA,NA,NA,NA,0,0,0,NA,44,0,44,73.2296414732588,"Fri Oct  1 11:29:35 2021","The main experiment item","yes","green","no","3","circle",NA,"pinging_target_expectations 4.0.osexp","C:\Users\etp-cp-ping\Desktop\LocalPC-EXP",75,"no","mono","no",18,"no","white","no","yes",1050,NA,100,"psycho",44,0,44,"C:/Users/etp-cp-ping/Desktop/LocalPC-EXP/subject-19.csv","psycho",8,45,45,"Lentiform Loewenfeld","3.3.8","['vert', 'hori', 'vert', 'vert', 'hori', 'hori', 'hori', 'vert']","no",209,"None","yes",0,NA,2,"legacy",NA,1024,2,48000,-16,"experiment",19,"odd","red","no",7,"diamond",404458.8656,404477.9595,404477.9996,NA,410266.8706,NA,NA,93390.4757,3618.09479999965,NA,93390.4981999999,532345.4748,535755.381,NA,NA,NA,NA,3618.17350000001,410988.912,NA,NA,532345.4889,411360.2344,532345.4252,"New experiment",19,"[0, 73.57351589540582, 73.82393180883471, 73.24070156826137, 73.51790598215035, 74.22162938493653, 74.7511373600522, 75.11677265226258, 73.36165543247553, 73.66851206866026, 73.36408208407717, 73.33973841953588, 74.97264975756231, 74.969398810826, 74.77731230492053, 73.66950851183782, 73.58701958011575, 74.38548590078616, 73.88777649669629, 73.47306296490886, 74.94132217955404, 73.49081438237143, 73.858391514241, 73.39888662383056]","dist_present",56,84,"yes","yes",1680,NA,NA,NA,NA,"NR","NR","lp",NA,NA,NA,NA,NA,NA,"practice",0,"NR","in"
"46",677.215399999986,37509.3620000004,37509.3620000004,31,31,"y",5,"['7', '8', '3', 'space']","n","#000000","no",536959.3924,1,"neutral","psycho","psycho","psycho",0,"uniform",1,0,0,0,NA,0,0,NA,0,0,0,0,45,45,NA,NA,NA,NA,0,0,0,NA,45,0,45,73.2296414732588,"Fri Oct  1 11:29:35 2021","The main experiment item","yes","green","no","None","circle",NA,"pinging_target_expectations 4.0.osexp","C:\Users\etp-cp-ping\Desktop\LocalPC-EXP",75,"no","mono","no",18,"no","white","no","yes",1050,NA,100,"psycho",45,0,45,"C:/Users/etp-cp-ping/Desktop/LocalPC-EXP/subject-19.csv","psycho",9,46,46,"Lentiform Loewenfeld","3.3.8","['hori', 'vert', 'vert', 'vert', 'hori', 'hori', 'hori', 'vert']","no",209,"None","yes",0,NA,2,"legacy",NA,1024,2,48000,-16,"experiment",19,"odd","red","no",1,"diamond",404458.8656,404477.9595,404477.9996,NA,410266.8706,NA,NA,93390.4757,3618.09479999965,NA,93390.4981999999,535787.2789,538219.2382,NA,NA,NA,NA,3618.17350000001,410988.912,NA,NA,535787.2931,411360.2344,535787.228,"New experiment",19,"[0, 77.27484746527809, 87.80961123195644, 94.18495317870065, 104.18874609098846, 116.11649377652287, 129.4437968595286, 142.2674010391653, 154.89152321816726, 162.19741058352318, 176.21986206201728, 190.19168137450913, 205.6241360639153, 219.66741896798212, 229.69704917968716, 242.32219228342998, 255.75898235578123, 275.65602944137356, 292.7172624518501, 309.41347342451206, 326.41131123409787, 340.6820830394544, 362.13113454039853, 367.06102020469524, 389.52196559332583, 407.3383987529694, 418.0504518394924, 436.5156934044629, 455.7456072019647, 469.63175230539736, 488.9521960273826, 507.0834159797786, 530.7675075449051, 544.3917669902788, 564.1330474148347, 579.223149796987, 609.1339700002013, 622.3189217092659, 697.550350984217, 715.3455979536897, 725.4049044771176, 745.603152655621, 765.7373257653787, 781.0347880998443, 808.3483225994946, 826.190030045796, 824.3802259536311, 75.2492550835272, 75.28533972779817, 75.69445287015877, 76.37815283328894, 76.86020224067012, 76.28506644360536, 75.74655554062957, 73.29406188810437, 73.29697833943874]","dist_absent",56,29,"yes","yes",1680,NA,NA,NA,NA,"NR","NR","lp",NA,"Left",NA,NA,NA,NA,"practice",7,"NR","in"
"47",1051.9132000003,38561.2752000007,38561.2752000007,32,32,"y",5,"['7', '8', '3', 'space']","n","#000000","no",536959.3924,1,"neutral","psycho","psycho","psycho",0,"uniform",1,0,0,0,NA,0,0,NA,0,0,0,0,46,46,NA,NA,NA,NA,0,0,0,NA,46,0,46,73.2296414732588,"Fri Oct  1 11:29:35 2021","The main experiment item","yes","red","no","6","diamond",NA,"pinging_target_expectations 4.0.osexp","C:\Users\etp-cp-ping\Desktop\LocalPC-EXP",75,"no","mono","no",18,"no","white","no","yes",1050,NA,100,"psycho",46,0,46,"C:/Users/etp-cp-ping/Desktop/LocalPC-EXP/subject-19.csv","psycho",9,47,47,"Lentiform Loewenfeld","3.3.8","['hori', 'vert', 'vert', 'vert', 'hori', 'hori', 'vert', 'hori']","no",209,"None","yes",0,NA,2,"legacy",NA,1024,2,48000,-16,"experiment",19,"odd","green","no",1,"circle",404458.8656,404477.9595,404477.9996,NA,410266.8706,NA,NA,93390.4757,3618.09479999965,NA,93390.4981999999,538249.6597,541323.377,NA,NA,NA,NA,3618.17350000001,410988.912,NA,NA,538249.6738,411360.2344,538249.6092,"New experiment",19,"[0]","dist_present",56,27,"yes","yes",1680,NA,NA,NA,NA,"R","NR","lp",NA,NA,NA,NA,NA,NA,"practice",1,"NR","in"
"48",665.011799999746,39226.2870000004,39226.2870000004,32,32,"y",5,"['7', '8', '3', 'space']","n","#000000","no",536959.3924,1,"neutral","psycho","psycho","psycho",0,"uniform",0,0,0,0,NA,0,0,NA,0,0,0,0,47,47,NA,NA,NA,NA,0,0,0,NA,47,0,47,73.2296414732588,"Fri Oct  1 11:29:35 2021","The main experiment item","yes","green","no","5","diamond",NA,"pinging_target_expectations 4.0.osexp","C:\Users\etp-cp-ping\Desktop\LocalPC-EXP",75,"no","mono","no",18,"no","white","no","yes",1050,NA,100,"psycho",47,0,47,"C:/Users/etp-cp-ping/Desktop/LocalPC-EXP/subject-19.csv","psycho",9,48,48,"Lentiform Loewenfeld","3.3.8","['vert', 'vert', 'hori', 'vert', 'hori', 'hori', 'hori', 'vert']","yes",109,"circles","yes",0,NA,2,"legacy",NA,1024,2,48000,-16,"experiment",19,"odd","red","no",0,"circle",404458.8656,404477.9595,404477.9996,NA,410266.8706,NA,NA,93390.4757,3618.09479999965,NA,93390.4981999999,541353.7768,543995.2326,NA,NA,NA,NA,3618.17350000001,410988.912,NA,NA,541353.7909,411360.2344,541353.7284,"New experiment",19,"[0]","dist_present",56,16,"yes","yes",1680,NA,NA,NA,NA,"NR","NR","lp","Right",NA,NA,NA,NA,NA,"practice",1,"R","in"
"49",636.444100000081,39862.7311000005,39862.7311000005,33,33,"y",5,"['7', '8', '3', 'space']","n","#000000","no",544563.5448,1,"neutral","psycho","psycho","psycho",0,"uniform",1,0,0,0,NA,0,0,NA,0,0,0,0,48,48,NA,NA,NA,NA,0,0,0,NA,48,0,48,73.2296414732588,"Fri Oct  1 11:29:35 2021","The main experiment item","yes","red","no","3","circle",NA,"pinging_target_expectations 4.0.osexp","C:\Users\etp-cp-ping\Desktop\LocalPC-EXP",75,"no","mono","no",18,"no","white","no","yes",1050,NA,100,"psycho",48,0,48,"C:/Users/etp-cp-ping/Desktop/LocalPC-EXP/subject-19.csv","psycho",10,49,49,"Lentiform Loewenfeld","3.3.8","['vert', 'hori', 'vert', 'vert', 'hori', 'hori', 'hori', 'vert']","yes",109,"diamond","yes",0,NA,2,"legacy",NA,1024,2,48000,-16,"experiment",19,"odd","green","no",6,"diamond",404458.8656,404477.9595,404477.9996,NA,410266.8706,NA,NA,93390.4757,3618.09479999965,NA,93390.4981999999,544025.6539,546555.2481,NA,NA,NA,NA,3618.17350000001,410988.912,NA,NA,544025.6683,411360.2344,544025.605,"New experiment",19,"[0]","dist_present",56,74,"yes","yes",1680,NA,NA,NA,NA,"NR","NR","lp",NA,NA,NA,NA,NA,NA,"practice",0,"NR","in"
"50",984.732700000284,40847.4638000008,40847.4638000008,33,33,"y",5,"['7', '8', '3', 'space']","n","#000000","no",544563.5448,1,"neutral","psycho","psycho","psycho",0,"uniform",0,0,0,0,NA,0,0,NA,0,0,0,0,49,49,NA,NA,NA,NA,0,0,0,NA,49,0,49,73.2296414732588,"Fri Oct  1 11:29:35 2021","The main experiment item","yes","red","no","7","diamond",NA,"pinging_target_expectations 4.0.osexp","C:\Users\etp-cp-ping\Desktop\LocalPC-EXP",75,"no","mono","no",18,"no","white","no","yes",1050,NA,100,"psycho",49,0,49,"C:/Users/etp-cp-ping/Desktop/LocalPC-EXP/subject-19.csv","psycho",10,50,50,"Lentiform Loewenfeld","3.3.8","['vert', 'hori', 'vert', 'vert', 'hori', 'hori', 'hori', 'vert']","yes",109,"circles","yes",0,NA,2,"legacy",NA,1024,2,48000,-16,"experiment",19,"odd","green","no",5,"circle",404458.8656,404477.9595,404477.9996,NA,410266.8706,NA,NA,93390.4757,3618.09479999965,NA,93390.4981999999,546585.6404,549339.3911,NA,NA,NA,NA,3618.17350000001,410988.912,NA,NA,546585.6544,411360.2344,546585.5894,"New experiment",19,"[0, 74.30005386371249, 74.58797656981942, 74.64426810864477, 74.70104406156224, 74.72962091885931, 74.250698764998, 73.80112839743693, 74.06895609881644, 73.85936994262075, 73.47442906259543, 73.44727008646736, 73.5435111248072, 73.60767369279505, 73.3142644848424, 73.41204174749163, 73.5394319598588, 73.60488192082386, 73.51787443423825, 74.45265887183696, 74.35490545574123, 74.25709828365532, 74.45136973272366, 74.99287558935485, 74.85196475175451, 74.91706234543226, 75.37334016557176, 75.6659012102369, 75.2497744656368, 74.269297704659, 74.49481751715592, 77.11511125130359, 76.72350823775813, 76.42989308594645, 76.42702636428339, 76.44631867311875, 75.8970594477355, 75.60588601425157, 75.50803671397524, 75.54934805608823, 75.57018739329018, 75.45947385732633, 75.36177281459452, 73.50988462246269, 73.68055175740763, 75.22134005719387, 75.3074352225909, 75.35124552810495, 75.41790101627868, 75.22298853509196, 74.92824425481705, 75.01467581023229, 74.81903641754127, 75.8970594477355, 76.38726109258768, 76.47122321328798, 76.37343536622441, 76.33205229149513, 77.40884014578143, 76.82143072892212, 76.89894896584067, 76.80635735107901, 76.91725201297274, 76.73919510225626, 76.84955482726743, 76.65462962960973, 76.23415730972174, 75.84281241373183, 75.99079951762786, 76.0884221537024, 76.25125599311849, 75.51533751465199, 73.90550533947423]","dist_present",56,68,"yes","yes",1680,NA,NA,NA,NA,"NR","NR","lp",NA,NA,NA,NA,NA,NA,"practice",6,"NR","in"
"51",621.872199999867,41469.3360000007,41469.3360000007,34,34,"y",5,"['7', '8', '3', 'space']","n","#000000","no",544563.5448,1,"neutral","psycho","psycho","psycho",0,"uniform",1,0,0,0,NA,0,0,NA,0,0,0,0,50,50,NA,NA,NA,NA,0,0,0,NA,50,0,50,73.2296414732588,"Fri Oct  1 11:29:35 2021","The main experiment item","yes","red","no","4","diamond",NA,"pinging_target_expectations 4.0.osexp","C:\Users\etp-cp-ping\Desktop\LocalPC-EXP",75,"no","mono","no",18,"no","white","no","yes",1050,NA,100,"psycho",50,0,50,"C:/Users/etp-cp-ping/Desktop/LocalPC-EXP/subject-19.csv","psycho",10,51,51,"Lentiform Loewenfeld","3.3.8","['vert', 'hori', 'hori', 'vert', 'vert', 'hori', 'vert', 'hori']","yes",109,"circles","yes",0,NA,2,"legacy",NA,1024,2,48000,-16,"experiment",19,"odd","green","no",0,"circle",404458.8656,404477.9595,404477.9996,NA,410266.8706,NA,NA,93390.4757,3618.09479999965,NA,93390.4981999999,549369.7736,551995.2081,NA,NA,NA,NA,3618.17350000001,410988.912,NA,NA,549369.7876,411360.2344,549369.7225,"New experiment",19,"[0]","dist_present",56,15,"yes","yes",1680,NA,NA,NA,NA,"NR","NR","lp",NA,NA,NA,NA,NA,NA,"practice",5,"NR","in"
"52",1591.05520000006,43060.3912000007,43060.3912000007,35,35,"y",5,"['7', '8', '3', 'space']","n","#000000","no",544563.5448,1,"neutral","psycho","psycho","psycho",0,"uniform",1,0,0,0,NA,0,0,NA,0,0,0,0,51,51,NA,NA,NA,NA,0,0,0,NA,51,0,51,73.2296414732588,"Fri Oct  1 11:29:35 2021","The main experiment item","yes","green","no","7","circle",NA,"pinging_target_expectations 4.0.osexp","C:\Users\etp-cp-ping\Desktop\LocalPC-EXP",75,"no","mono","no",18,"no","white","no","yes",1050,NA,100,"psycho",51,0,51,"C:/Users/etp-cp-ping/Desktop/LocalPC-EXP/subject-19.csv","psycho",10,52,52,"Lentiform Loewenfeld","3.3.8","['vert', 'hori', 'vert', 'vert', 'vert', 'hori', 'hori', 'hori']","yes",109,"circles","yes",0,NA,2,"legacy",NA,1024,2,48000,-16,"experiment",19,"odd","red","no",0,"diamond",404458.8656,404477.9595,404477.9996,NA,410266.8706,NA,NA,93390.4757,3618.09479999965,NA,93390.4981999999,552025.6409,555467.3005,NA,NA,NA,NA,3618.17350000001,410988.912,NA,NA,552025.6552,411360.2344,552025.5908,"New experiment",19,"[0]","dist_present",56,18,"yes","yes",1680,NA,NA,NA,NA,"R","NR","lp","Right",NA,NA,NA,NA,NA,"practice",0,"NR","in"
"53",1302.68580000033,44363.077000001,44363.077000001,36,36,"y",5,"['7', '8', '3', 'space']","n","#000000","no",544563.5448,1,"neutral","psycho","psycho","psycho",0,"uniform",1,0,0,0,NA,0,0,NA,0,0,0,0,52,52,NA,NA,NA,NA,0,0,0,NA,52,0,52,73.2296414732588,"Fri Oct  1 11:29:35 2021","The main experiment item","yes","green","no","2","circle",NA,"pinging_target_expectations 4.0.osexp","C:\Users\etp-cp-ping\Desktop\LocalPC-EXP",75,"no","mono","no",18,"no","white","no","yes",1050,NA,100,"psycho",52,0,52,"C:/Users/etp-cp-ping/Desktop/LocalPC-EXP/subject-19.csv","psycho",10,53,53,"Lentiform Loewenfeld","3.3.8","['hori', 'hori', 'vert', 'hori', 'hori', 'vert', 'vert', 'vert']","no",209,"None","yes",0,NA,2,"legacy",NA,1024,2,48000,-16,"experiment",19,"odd","red","no",1,"diamond",404458.8656,404477.9595,404477.9996,NA,410266.8706,NA,NA,93390.4757,3618.09479999965,NA,93390.4981999999,555497.8808,558747.2327,NA,NA,NA,NA,3618.17350000001,410988.912,NA,NA,555497.8952,411360.2344,555497.8308,"New experiment",19,"[0]","dist_present",56,23,"yes","yes",1680,NA,NA,NA,NA,"NR","NR","lp",NA,NA,NA,NA,NA,NA,"practice",0,"R","in"
"54",1038.33320000011,45401.4102000011,45401.4102000011,37,37,"y",5,"['7', '8', '3', 'space']","n","#000000","no",544563.5448,1,"neutral","psycho","psycho","psycho",0,"uniform",1,0,0,0,NA,0,0,NA,0,0,0,0,53,53,NA,NA,NA,NA,0,0,0,NA,53,0,53,73.2296414732588,"Fri Oct  1 11:29:35 2021","The main experiment item","yes","green","no","None","circle",NA,"pinging_target_expectations 4.0.osexp","C:\Users\etp-cp-ping\Desktop\LocalPC-EXP",75,"no","mono","no",18,"no","white","no","yes",1050,NA,100,"psycho",53,0,53,"C:/Users/etp-cp-ping/Desktop/LocalPC-EXP/subject-19.csv","psycho",10,54,54,"Lentiform Loewenfeld","3.3.8","['vert', 'vert', 'hori', 'hori', 'hori', 'vert', 'hori', 'vert']","yes",109,"diamond","yes",0,NA,2,"legacy",NA,1024,2,48000,-16,"experiment",19,"odd","red","no",7,"diamond",404458.8656,404477.9595,404477.9996,NA,410266.8706,NA,NA,93390.4757,3618.09479999965,NA,93390.4981999999,558777.6611,561979.3319,NA,NA,NA,NA,3618.17350000001,410988.912,NA,NA,558777.6753,411360.2344,558777.6116,"New experiment",19,"[0]","dist_absent",56,89,"yes","yes",1680,NA,NA,NA,NA,"NR","NR","lp",NA,"Right",NA,NA,NA,NA,"practice",1,"NR","in"
"55",945.994900000165,46347.4051000013,46347.4051000013,38,38,"y",5,"['7', '8', '3', 'space']","n","#000000","no",562551.8553,1,"neutral","psycho","psycho","psycho",0,"uniform",1,0,0,0,NA,0,0,NA,0,0,0,0,54,54,NA,NA,NA,NA,0,0,0,NA,54,0,54,73.2296414732588,"Fri Oct  1 11:29:35 2021","The main experiment item","yes","red","no","None","diamond",NA,"pinging_target_expectations 4.0.osexp","C:\Users\etp-cp-ping\Desktop\LocalPC-EXP",75,"no","mono","no",18,"no","white","no","yes",1050,NA,100,"psycho",54,0,54,"C:/Users/etp-cp-ping/Desktop/LocalPC-EXP/subject-19.csv","psycho",11,55,55,"Lentiform Loewenfeld","3.3.8","['hori', 'vert', 'vert', 'hori', 'hori', 'vert', 'vert', 'hori']","no",209,"None","yes",0,NA,2,"legacy",NA,1024,2,48000,-16,"experiment",19,"odd","green","no",4,"circle",404458.8656,404477.9595,404477.9996,NA,410266.8706,NA,NA,93390.4757,3618.09479999965,NA,93390.4981999999,562011.3705,564987.2617,NA,NA,NA,NA,3618.17350000001,410988.912,NA,NA,562011.3844,411360.2344,562011.3214,"New experiment",19,"[0]","dist_absent",56,59,"yes","yes",1680,NA,NA,NA,NA,"NR","R","lp",NA,NA,NA,NA,NA,NA,"practice",7,"NR","in"
"56",755.59270000027,47102.9978000016,47102.9978000016,39,39,"y",5,"['7', '8', '3', 'space']","n","#000000","no",562551.8553,1,"neutral","psycho","psycho","psycho",0,"uniform",1,0,0,0,NA,0,0,NA,0,0,0,0,55,55,NA,NA,NA,NA,0,0,0,NA,55,0,55,73.2296414732588,"Fri Oct  1 11:29:35 2021","The main experiment item","yes","red","no","None","circle",NA,"pinging_target_expectations 4.0.osexp","C:\Users\etp-cp-ping\Desktop\LocalPC-EXP",75,"no","mono","no",18,"no","white","no","yes",1050,NA,100,"psycho",55,0,55,"C:/Users/etp-cp-ping/Desktop/LocalPC-EXP/subject-19.csv","psycho",11,56,56,"Lentiform Loewenfeld","3.3.8","['vert', 'hori', 'hori', 'vert', 'vert', 'vert', 'hori', 'hori']","yes",109,"diamond","yes",0,NA,2,"legacy",NA,1024,2,48000,-16,"experiment",19,"odd","green","no",4,"diamond",404458.8656,404477.9595,404477.9996,NA,410266.8706,NA,NA,93390.4757,3618.09479999965,NA,93390.4981999999,565017.902,567547.1647,NA,NA,NA,NA,3618.17350000001,410988.912,NA,NA,565017.916,411360.2344,565017.8514,"New experiment",19,"[0]","dist_absent",56,59,"yes","yes",1680,NA,NA,NA,NA,"R","R","lp",NA,NA,NA,NA,NA,NA,"practice",4,"NR","in"
"57",1299.29589999991,1299.29589999991,48402.2937000015,1,40,"y",5,"['7', '8', '3', 'space']","n","#000000","no",562551.8553,2,"bias","psycho","psycho","psycho",0,"uniform",1,0,1,1,NA,1,0,NA,0,0,1,0,56,56,NA,NA,NA,NA,0,1,1,NA,56,1,56,73.2296414732588,"Fri Oct  1 11:29:35 2021","The main experiment item","yes","red","no","2","circle",NA,"pinging_target_expectations 4.0.osexp","C:\Users\etp-cp-ping\Desktop\LocalPC-EXP",75,"no","mono","no",18,"no","white","no","yes",1050,NA,6,"psycho",0,1,0,"C:/Users/etp-cp-ping/Desktop/LocalPC-EXP/subject-19.csv","psycho",0,57,1,"Lentiform Loewenfeld","3.3.8","['hori', 'vert', 'vert', 'hori', 'hori', 'vert', 'vert', 'hori']","no",206,"None","no",0,NA,2,"legacy",NA,1024,2,48000,-16,"experiment",19,"odd","green","no",1,"diamond",404458.8656,669632.1486,669632.1967,NA,694207.2243,NA,NA,93390.4757,3618.09479999965,568083.9223,93390.4981999999,695693.8043,698650.8376,NA,NA,NA,NA,3618.17350000001,695289.8495,567576.8703,NA,695693.8203,695689.4723,695693.7327,"New experiment",19,"[0]","dist_present",56,23,"yes","yes",1680,-2.56013929263562,-34.7475492974806,"more toward","False","NR","NR","lp",NA,NA,NA,NA,-3,4,"first",999,"R","in"
"58",624.158200000296,1923.45410000021,49026.4519000018,2,41,"y",5,"['7', '8', '3', 'space']","n","#000000","no",562551.8553,2,"bias","psycho","psycho","psycho",0,"uniform",1,0,1,1,NA,1,0,NA,0,0,1,0,57,57,NA,NA,NA,NA,0,1,1,NA,57,1,57,73.2296414732588,"Fri Oct  1 11:29:35 2021","The main experiment item","yes","green","no","None","diamond",NA,"pinging_target_expectations 4.0.osexp","C:\Users\etp-cp-ping\Desktop\LocalPC-EXP",75,"no","mono","no",18,"no","white","no","yes",1050,NA,6,"psycho",1,1,1,"C:/Users/etp-cp-ping/Desktop/LocalPC-EXP/subject-19.csv","psycho",0,58,2,"Lentiform Loewenfeld","3.3.8","['vert', 'hori', 'hori', 'vert', 'vert', 'hori', 'hori', 'vert']","no",206,"None","no",0,NA,2,"legacy",NA,1024,2,48000,-16,"experiment",19,"odd","red","no",5,"circle",404458.8656,669632.1486,669632.1967,NA,694207.2243,NA,NA,93390.4757,3618.09479999965,568083.9223,93390.4981999999,698682.0611,701306.8888,NA,NA,NA,NA,3618.17350000001,695289.8495,567576.8703,NA,698682.0754,695689.4723,698682.0133,"New experiment",19,"[0]","dist_absent",56,69,"yes","yes",1680,0.370610707364193,-28.8821742974806,"more toward","False","NR","NR","lp",NA,"Right",NA,NA,1,NA,"first",1,"NR","in"
"59",1130.82679999981,3054.28090000001,50157.2787000016,3,42,"y",5,"['7', '8', '3', 'space']","n","#000000","no",562551.8553,2,"bias","psycho","psycho","psycho",0,"uniform",1,0,1,1,NA,1,0,NA,0,0,1,0,58,58,NA,NA,NA,NA,0,1,1,NA,58,1,58,73.2296414732588,"Fri Oct  1 11:29:35 2021","The main experiment item","yes","green","no","7","diamond",NA,"pinging_target_expectations 4.0.osexp","C:\Users\etp-cp-ping\Desktop\LocalPC-EXP",75,"no","mono","no",18,"no","white","no","yes",1050,NA,6,"psycho",2,1,2,"C:/Users/etp-cp-ping/Desktop/LocalPC-EXP/subject-19.csv","psycho",0,59,3,"Lentiform Loewenfeld","3.3.8","['vert', 'vert', 'vert', 'hori', 'hori', 'vert', 'hori', 'hori']","no",206,"None","no",0,NA,2,"legacy",NA,1024,2,48000,-16,"experiment",19,"odd","red","no",1,"circle",404458.8656,669632.1486,669632.1967,NA,694207.2243,NA,NA,93390.4757,3618.09479999965,568083.9223,93390.4981999999,701337.4054,704330.867,NA,NA,NA,NA,3618.17350000001,695289.8495,567576.8703,NA,701337.4195,695689.4723,701337.3555,"New experiment",19,"[0]","dist_present",56,28,"yes","yes",1680,-5.14338929263573,-53.8037367974806,"more toward","False","NR","NR","lp",NA,NA,NA,NA,-3,-1,"first",5,"NR","in"
"60",734.068900000188,3788.3498000002,50891.3476000018,4,43,"y",5,"['7', '8', '3', 'space']","n","#000000","no",562551.8553,2,"bias","psycho","psycho","psycho",0,"uniform",1,0,1,1,NA,1,0,NA,0,0,1,0,59,59,NA,NA,NA,NA,0,1,1,NA,59,1,59,73.2296414732588,"Fri Oct  1 11:29:35 2021","The main experiment item","yes","green","no","None","circle",NA,"pinging_target_expectations 4.0.osexp","C:\Users\etp-cp-ping\Desktop\LocalPC-EXP",75,"no","mono","no",18,"no","white","no","yes",1050,NA,6,"psycho",3,1,3,"C:/Users/etp-cp-ping/Desktop/LocalPC-EXP/subject-19.csv","psycho",0,60,4,"Lentiform Loewenfeld","3.3.8","['vert', 'vert', 'hori', 'vert', 'hori', 'vert', 'hori', 'hori']","yes",106,"circles","no",0,NA,2,"legacy",NA,1024,2,48000,-16,"experiment",19,"odd","red","yes",6,"diamond",404458.8656,669632.1486,669632.1967,NA,694207.2243,NA,NA,93390.4757,3618.09479999965,568083.9223,93390.4981999999,704361.1846,706906.8521,NA,NA,NA,NA,3618.17350000001,695289.8495,567576.8703,NA,704361.1987,695689.4723,704361.1347,"New experiment",19,"[0]","dist_absent",56,79,"yes","yes",1680,-17.1192642926357,-54.9194867974806,"more toward","False","NR","NR","lp",NA,"Right",NA,"Right",0,NA,"first",1,"NR","ex"
"61",721.201800000039,4509.55160000024,51612.5494000018,4,43,"y",5,"['7', '8', '3', 'space']","n","#000000","no",562551.8553,2,"bias","psycho","psycho","psycho",0,"uniform",0,0,1,1,NA,1,0,NA,0,0,1,0,60,60,NA,NA,NA,NA,0,1,1,NA,60,1,60,73.2296414732588,"Fri Oct  1 11:29:35 2021","The main experiment item","yes","red","no","None","diamond",NA,"pinging_target_expectations 4.0.osexp","C:\Users\etp-cp-ping\Desktop\LocalPC-EXP",75,"no","mono","no",18,"no","white","no","yes",1050,NA,6,"psycho",4,1,4,"C:/Users/etp-cp-ping/Desktop/LocalPC-EXP/subject-19.csv","psycho",0,61,5,"Lentiform Loewenfeld","3.3.8","['vert', 'hori', 'vert', 'vert', 'vert', 'hori', 'hori', 'hori']","no",206,"None","no",0,NA,2,"legacy",NA,1024,2,48000,-16,"experiment",19,"odd","green","yes",6,"circle",404458.8656,669632.1486,669632.1967,NA,694207.2243,NA,NA,93390.4757,3618.09479999965,568083.9223,93390.4981999999,706938.871,709498.831,NA,NA,NA,NA,3618.17350000001,695289.8495,567576.8703,NA,706938.885,695689.4723,706938.8201,"New experiment",19,"[0]","dist_absent",56,79,"yes","yes",1680,-6.77682679263559,-37.9072367974806,"more toward","False","R","R","hp",NA,"Right",NA,"Right",0,NA,"first",6,"NR","ex"
"62",1149.4500000003,5659.00160000054,52761.9994000021,5,44,"y",5,"['7', '8', '3', 'space']","n","#000000","no",562551.8553,2,"bias","psycho","psycho","psycho",0,"uniform",1,0,1,1,NA,1,0,NA,0,0,1,0,61,61,NA,NA,NA,NA,0,1,1,NA,61,1,61,73.2296414732588,"Fri Oct  1 11:29:35 2021","The main experiment item","yes","red","no","5","circle",NA,"pinging_target_expectations 4.0.osexp","C:\Users\etp-cp-ping\Desktop\LocalPC-EXP",75,"no","mono","no",18,"no","white","no","yes",1050,NA,6,"psycho",5,1,5,"C:/Users/etp-cp-ping/Desktop/LocalPC-EXP/subject-19.csv","psycho",0,62,6,"Lentiform Loewenfeld","3.3.8","['hori', 'vert', 'hori', 'vert', 'hori', 'vert', 'vert', 'hori']","no",206,"None","no",0,NA,2,"legacy",NA,1024,2,48000,-16,"experiment",19,"odd","green","no",2,"diamond",404458.8656,669632.1486,669632.1967,NA,694207.2243,NA,NA,93390.4757,3618.09479999965,568083.9223,93390.4981999999,709529.5822,712602.842,NA,NA,NA,NA,3618.17350000001,695289.8495,567576.8703,NA,709529.5963,695689.4723,709529.5315,"New experiment",19,"[0]","dist_present",56,36,"yes","yes",1680,2.63704820736439,-29.5341117974806,"more toward","False","NR","NR","hp",NA,NA,NA,NA,4,1,"first",6,"R","in"
"63",1948.07339999988,7607.07500000042,54710.072800002,6,45,"y",5,"['7', '8', '3', 'space']","n","#000000","no",713266.0001,2,"bias","psycho","psycho","psycho",0,"uniform",1,0,1,1,NA,1,0,NA,0,0,1,0,62,62,NA,NA,NA,NA,0,1,1,NA,62,1,62,73.2296414732588,"Fri Oct  1 11:29:35 2021","The main experiment item","yes","red","no","5","diamond",NA,"pinging_target_expectations 4.0.osexp","C:\Users\etp-cp-ping\Desktop\LocalPC-EXP",75,"no","mono","no",18,"no","white","no","yes",1050,NA,6,"psycho",6,1,6,"C:/Users/etp-cp-ping/Desktop/LocalPC-EXP/subject-19.csv","psycho",1,63,7,"Lentiform Loewenfeld","3.3.8","['hori', 'vert', 'hori', 'hori', 'vert', 'vert', 'hori', 'vert']","yes",106,"diamond","no",0,NA,2,"legacy",NA,1024,2,48000,-16,"experiment",19,"odd","green","no",3,"circle",404458.8656,669632.1486,669632.1967,NA,694207.2243,NA,NA,93390.4757,3618.09479999965,568083.9223,93390.4981999999,712633.3038,716538.8624,NA,NA,NA,NA,3618.17350000001,695289.8495,567576.8703,NA,712633.3179,695689.4723,712633.2539,"New experiment",19,"[0]","dist_present",56,46,"yes","no",1680,-8.66313929263564,-3.6731742974806,"more toward","False","NR","R","lp",NA,NA,NA,NA,3,1,"first",2,"NR","in"
"64",1115.6381000001,8722.71310000052,55825.7109000021,7,46,"y",5,"['7', '8', '3', 'space']","n","#000000","no",713266.0001,2,"bias","psycho","psycho","psycho",0,"uniform",1,0,1,1,NA,1,0,NA,0,0,1,0,63,63,NA,NA,NA,NA,0,1,1,NA,63,1,63,73.2296414732588,"Fri Oct  1 11:29:35 2021","The main experiment item","yes","green","no","1","diamond",NA,"pinging_target_expectations 4.0.osexp","C:\Users\etp-cp-ping\Desktop\LocalPC-EXP",75,"no","mono","no",18,"no","white","no","yes",1050,NA,6,"psycho",7,1,7,"C:/Users/etp-cp-ping/Desktop/LocalPC-EXP/subject-19.csv","psycho",1,64,8,"Lentiform Loewenfeld","3.3.8","['hori', 'hori', 'hori', 'vert', 'vert', 'hori', 'vert', 'vert']","yes",106,"diamond","no",0,NA,2,"legacy",NA,1024,2,48000,-16,"experiment",19,"odd","red","no",5,"circle",404458.8656,669632.1486,669632.1967,NA,694207.2243,NA,NA,93390.4757,3618.09479999965,568083.9223,93390.4981999999,716570.6394,719722.9756,NA,NA,NA,NA,3618.17350000001,695289.8495,567576.8703,NA,716570.6535,695689.4723,716570.5879,"New experiment",19,"[0]","dist_present",56,62,"yes","yes",1680,-7.4942642926357,2.91507570251936,"more toward","False","NR","NR","lp",NA,NA,NA,NA,1,-3,"first",3,"NR","in"
"65",1391.01879999996,10113.7319000005,57216.7297000021,8,47,"y",5,"['7', '8', '3', 'space']","n","#000000","no",713266.0001,2,"bias","psycho","psycho","psycho",0,"uniform",1,0,1,1,NA,1,0,NA,0,0,1,0,64,64,NA,NA,NA,NA,0,1,1,NA,64,1,64,73.2296414732588,"Fri Oct  1 11:29:35 2021","The main experiment item","yes","green","no","4","circle",NA,"pinging_target_expectations 4.0.osexp","C:\Users\etp-cp-ping\Desktop\LocalPC-EXP",75,"no","mono","no",18,"no","white","no","yes",1050,NA,6,"psycho",8,1,8,"C:/Users/etp-cp-ping/Desktop/LocalPC-EXP/subject-19.csv","psycho",1,65,9,"Lentiform Loewenfeld","3.3.8","['hori', 'hori', 'hori', 'vert', 'vert', 'vert', 'hori', 'vert']","no",206,"None","no",0,NA,2,"legacy",NA,1024,2,48000,-16,"experiment",19,"odd","red","no",7,"diamond",404458.8656,669632.1486,669632.1967,NA,694207.2243,NA,NA,93390.4757,3618.09479999965,568083.9223,93390.4981999999,719753.584,722762.8154,NA,NA,NA,NA,3618.17350000001,695289.8495,567576.8703,NA,719753.5981,695689.4723,719753.5329,"New experiment",19,"[0]","dist_present",56,85,"yes","yes",1680,6.08679820736443,-3.78004929748061,"more toward","False","NR","NR","lp",NA,"Right",NA,NA,-1,2,"first",5,"NR","in"
"66",2000.52240000013,12114.2543000006,59217.2521000022,8,47,"y",5,"['7', '8', '3', 'space']","n","#000000","no",713266.0001,2,"bias","psycho","psycho","psycho",0,"uniform",0,0,1,1,NA,1,0,NA,0,0,1,0,65,65,NA,NA,NA,NA,0,1,1,NA,65,1,65,73.2296414732588,"Fri Oct  1 11:29:35 2021","The main experiment item","yes","green","yes","6","circle",NA,"pinging_target_expectations 4.0.osexp","C:\Users\etp-cp-ping\Desktop\LocalPC-EXP",75,"no","mono","no",18,"no","white","no","yes",1050,NA,6,"psycho",9,1,9,"C:/Users/etp-cp-ping/Desktop/LocalPC-EXP/subject-19.csv","psycho",1,66,10,"Lentiform Loewenfeld","3.3.8","['hori', 'vert', 'vert', 'vert', 'hori', 'hori', 'vert', 'hori']","yes",106,"diamond","no",0,NA,2,"legacy",NA,1024,2,48000,-16,"experiment",19,"odd","red","no",3,"diamond",404458.8656,669632.1486,669632.1967,NA,694207.2243,NA,NA,93390.4757,3618.09479999965,568083.9223,93390.4981999999,722794.6789,726896.1005,NA,NA,NA,NA,3618.17350000001,695289.8495,567576.8703,NA,722794.6928,695689.4723,722794.629,"New experiment",19,"[0]","dist_present",56,47,"yes","yes",1680,8.53179820736429,16.1978882025194,"more toward","False","NR","NR","lp",NA,NA,NA,NA,3,0,"first",7,"NR","in"
"67",636.192800000077,12750.4471000007,59853.4449000023,9,48,"y",5,"['7', '8', '3', 'space']","n","#000000","no",713266.0001,2,"bias","psycho","psycho","psycho",0,"uniform",1,0,1,1,NA,1,0,NA,0,0,1,0,66,66,NA,NA,NA,NA,0,1,1,NA,66,1,66,73.2296414732588,"Fri Oct  1 11:29:35 2021","The main experiment item","yes","green","no","None","circle",NA,"pinging_target_expectations 4.0.osexp","C:\Users\etp-cp-ping\Desktop\LocalPC-EXP",75,"no","mono","no",18,"no","white","no","yes",1050,NA,6,"psycho",10,1,10,"C:/Users/etp-cp-ping/Desktop/LocalPC-EXP/subject-19.csv","psycho",1,67,11,"Lentiform Loewenfeld","3.3.8","['vert', 'hori', 'vert', 'vert', 'hori', 'hori', 'vert', 'hori']","yes",106,"circles","no",0,NA,2,"legacy",NA,1024,2,48000,-16,"experiment",19,"odd","red","yes",6,"diamond",404458.8656,669632.1486,669632.1967,NA,694207.2243,NA,NA,93390.4757,3618.09479999965,568083.9223,93390.4981999999,726926.3842,729258.8544,NA,NA,NA,NA,3618.17350000001,695289.8495,567576.8703,NA,726926.3988,695689.4723,726926.3344,"New experiment",19,"[0]","dist_absent",56,79,"yes","yes",1680,5.51448570736434,7.39876320251946,"more toward","False","NR","NR","lp",NA,"Right",NA,"Right",0,NA,"first",3,"NR","ex"
"68",758.904400000116,13509.3515000008,60612.3493000024,10,49,"y",5,"['7', '8', '3', 'space']","n","#000000","no",713266.0001,2,"bias","psycho","psycho","psycho",0,"uniform",1,0,1,1,NA,1,0,NA,0,0,1,0,67,67,NA,NA,NA,NA,0,1,1,NA,67,1,67,73.2296414732588,"Fri Oct  1 11:29:35 2021","The main experiment item","yes","green","no","1","circle",NA,"pinging_target_expectations 4.0.osexp","C:\Users\etp-cp-ping\Desktop\LocalPC-EXP",75,"no","mono","no",18,"no","white","no","yes",1050,NA,6,"psycho",11,1,11,"C:/Users/etp-cp-ping/Desktop/LocalPC-EXP/subject-19.csv","psycho",1,68,12,"Lentiform Loewenfeld","3.3.8","['vert', 'vert', 'vert', 'hori', 'hori', 'hori', 'vert', 'hori']","no",206,"None","no",0,NA,2,"legacy",NA,1024,2,48000,-16,"experiment",19,"odd","red","no",3,"diamond",404458.8656,669632.1486,669632.1967,NA,694207.2243,NA,NA,93390.4757,3618.09479999965,568083.9223,93390.4981999999,729289.3727,732074.7529,NA,NA,NA,NA,3618.17350000001,695289.8495,567576.8703,NA,729289.3869,695689.4723,729289.322,"New experiment",19,"[0]","dist_present",56,42,"yes","yes",1680,13.8621107073643,21.7170132025194,"more toward","False","NR","NR","hp",NA,NA,NA,NA,3,-3,"first",6,"NR","in"
"69",733.487199999741,14242.8387000005,61345.8365000021,11,50,"y",5,"['7', '8', '3', 'space']","n","#000000","no",713266.0001,2,"bias","psycho","psycho","psycho",0,"uniform",1,0,1,1,NA,1,0,NA,0,0,1,0,68,68,NA,NA,NA,NA,0,1,1,NA,68,1,68,73.2296414732588,"Fri Oct  1 11:29:35 2021","The main experiment item","yes","green","no","1","circle",NA,"pinging_target_expectations 4.0.osexp","C:\Users\etp-cp-ping\Desktop\LocalPC-EXP",75,"no","mono","no",18,"no","white","no","yes",1050,NA,6,"psycho",12,1,12,"C:/Users/etp-cp-ping/Desktop/LocalPC-EXP/subject-19.csv","psycho",1,69,13,"Lentiform Loewenfeld","3.3.8","['hori', 'vert', 'vert', 'hori', 'vert', 'hori', 'vert', 'hori']","no",206,"None","no",0,NA,2,"legacy",NA,1024,2,48000,-16,"experiment",19,"odd","red","yes",6,"diamond",404458.8656,669632.1486,669632.1967,NA,694207.2243,NA,NA,93390.4757,3618.09479999965,568083.9223,93390.4981999999,732105.7011,734714.7754,NA,NA,NA,NA,3618.17350000001,695289.8495,567576.8703,NA,732105.7153,695689.4723,732105.6504,"New experiment",19,"[0]","dist_present",56,72,"yes","yes",1680,15.1380482073643,14.8463882025194,"more toward","False","NR","R","lp",NA,NA,NA,NA,0,-3,"first",3,"NR","ex"
"70",808.035500000231,15050.8742000008,62153.8720000024,11,50,"y",5,"['7', '8', '3', 'space']","n","#000000","no",713266.0001,2,"bias","psycho","psycho","psycho",0,"uniform",0,0,1,1,NA,1,0,NA,0,0,1,0,69,69,NA,NA,NA,NA,0,1,1,NA,69,1,69,73.2296414732588,"Fri Oct  1 11:29:35 2021","The main experiment item","yes","red","no","7","diamond",NA,"pinging_target_expectations 4.0.osexp","C:\Users\etp-cp-ping\Desktop\LocalPC-EXP",75,"no","mono","no",18,"no","white","no","yes",1050,NA,6,"psycho",13,1,13,"C:/Users/etp-cp-ping/Desktop/LocalPC-EXP/subject-19.csv","psycho",1,70,14,"Lentiform Loewenfeld","3.3.8","['hori', 'hori', 'hori', 'vert', 'vert', 'vert', 'hori', 'vert']","yes",106,"diamond","no",0,NA,2,"legacy",NA,1024,2,48000,-16,"experiment",19,"odd","green","yes",6,"circle",404458.8656,669632.1486,669632.1967,NA,694207.2243,NA,NA,93390.4757,3618.09479999965,568083.9223,93390.4981999999,734745.2229,737514.7462,NA,NA,NA,NA,3618.17350000001,695289.8495,567576.8703,NA,734745.237,695689.4723,734745.1733,"New experiment",19,"[0]","dist_present",56,78,"yes","yes",1680,6.09842320736433,24.5614507025194,"more toward","False","R","NR","hp",NA,NA,NA,NA,0,-1,"first",6,"NR","ex"
"71",761.836300000199,15812.710500001,62915.7083000026,12,51,"y",5,"['7', '8', '3', 'space']","n","#000000","no",713266.0001,2,"bias","psycho","psycho","psycho",0,"uniform",1,0,1,1,NA,1,0,NA,0,0,1,0,70,70,NA,NA,NA,NA,0,1,1,NA,70,1,70,73.2296414732588,"Fri Oct  1 11:29:35 2021","The main experiment item","yes","red","no","1","circle",NA,"pinging_target_expectations 4.0.osexp","C:\Users\etp-cp-ping\Desktop\LocalPC-EXP",75,"no","mono","no",18,"no","white","no","yes",1050,NA,6,"psycho",14,1,14,"C:/Users/etp-cp-ping/Desktop/LocalPC-EXP/subject-19.csv","psycho",1,71,15,"Lentiform Loewenfeld","3.3.8","['hori', 'vert', 'vert', 'vert', 'hori', 'hori', 'vert', 'hori']","yes",106,"circles","no",0,NA,2,"legacy",NA,1024,2,48000,-16,"experiment",19,"odd","green","yes",6,"diamond",404458.8656,669632.1486,669632.1967,NA,694207.2243,NA,NA,93390.4757,3618.09479999965,568083.9223,93390.4981999999,737545.2427,740122.8056,NA,NA,NA,NA,3618.17350000001,695289.8495,567576.8703,NA,737545.2565,695689.4723,737545.1926,"New experiment",19,"[0]","dist_present",56,72,"yes","yes",1680,22.7877357073643,3.66082570251932,"more away","False","R","NR","hp",NA,NA,NA,NA,0,-3,"first",6,"R","ex"
"72",2000.47869999975,17813.1892000007,64916.1870000023,12,51,"y",5,"['7', '8', '3', 'space']","n","#000000","no",713266.0001,2,"bias","psycho","psycho","psycho",0,"uniform",0,0,1,1,NA,1,0,NA,0,0,1,0,71,71,NA,NA,NA,NA,0,1,1,NA,71,1,71,73.2296414732588,"Fri Oct  1 11:29:35 2021","The main experiment item","yes","green","no","None","diamond",NA,"pinging_target_expectations 4.0.osexp","C:\Users\etp-cp-ping\Desktop\LocalPC-EXP",75,"no","mono","no",18,"no","white","no","yes",1050,NA,6,"psycho",15,1,15,"C:/Users/etp-cp-ping/Desktop/LocalPC-EXP/subject-19.csv","psycho",1,72,16,"Lentiform Loewenfeld","3.3.8","['hori', 'hori', 'hori', 'hori', 'vert', 'vert', 'vert', 'vert']","yes",106,"diamond","no",0,NA,2,"legacy",NA,1024,2,48000,-16,"experiment",19,"odd","red","no",7,"circle",404458.8656,669632.1486,669632.1967,NA,694207.2243,NA,NA,93390.4757,3618.09479999965,568083.9223,93390.4981999999,740153.275,744149.4062,NA,NA,NA,NA,3618.17350000001,695289.8495,567576.8703,NA,740153.2896,695689.4723,740153.2245,"New experiment",19,"[0]","dist_absent",56,89,"yes","yes",1680,8.08442320736427,26.9858257025194,"more toward","False","NR","NR","hp",NA,"Right",NA,NA,-1,NA,"first",6,"R","in"
"73",708.092899999931,18521.2821000007,65624.2799000022,12,51,"y",5,"['7', '8', '3', 'space']","n","#000000","no",713266.0001,2,"bias","psycho","psycho","psycho",0,"uniform",0,0,1,1,NA,1,0,NA,0,0,1,0,72,72,NA,NA,NA,NA,0,1,1,NA,72,1,72,73.2296414732588,"Fri Oct  1 11:29:35 2021","The main experiment item","yes","red","yes","6","diamond",NA,"pinging_target_expectations 4.0.osexp","C:\Users\etp-cp-ping\Desktop\LocalPC-EXP",75,"no","mono","no",18,"no","white","no","yes",1050,NA,6,"psycho",16,1,16,"C:/Users/etp-cp-ping/Desktop/LocalPC-EXP/subject-19.csv","psycho",1,73,17,"Lentiform Loewenfeld","3.3.8","['vert', 'hori', 'hori', 'vert', 'hori', 'hori', 'vert', 'vert']","no",206,"None","no",0,NA,2,"legacy",NA,1024,2,48000,-16,"experiment",19,"odd","green","no",1,"circle",404458.8656,669632.1486,669632.1967,NA,694207.2243,NA,NA,93390.4757,3618.09479999965,568083.9223,93390.4981999999,744179.6977,746602.7293,NA,NA,NA,NA,3618.17350000001,695289.8495,567576.8703,NA,744179.7115,695689.4723,744179.6455,"New experiment",19,"[0]","dist_present",56,27,"yes","yes",1680,6.7490482073642,-1.34586179748065,"more toward","False","NR","NR","lp",NA,NA,NA,NA,-3,0,"first",7,"NR","in"
"74",900.567300000112,19421.8494000008,66524.8472000023,13,52,"y",5,"['7', '8', '3', 'space']","n","#000000","no",713266.0001,2,"bias","psycho","psycho","psycho",0,"uniform",1,0,1,1,NA,1,0,NA,0,0,1,0,73,73,NA,NA,NA,NA,0,1,1,NA,73,1,73,73.2296414732588,"Fri Oct  1 11:29:35 2021","The main experiment item","yes","green","no","None","circle",NA,"pinging_target_expectations 4.0.osexp","C:\Users\etp-cp-ping\Desktop\LocalPC-EXP",75,"no","mono","no",18,"no","white","no","yes",1050,NA,6,"psycho",17,1,17,"C:/Users/etp-cp-ping/Desktop/LocalPC-EXP/subject-19.csv","psycho",1,74,18,"Lentiform Loewenfeld","3.3.8","['hori', 'vert', 'hori', 'vert', 'vert', 'hori', 'vert', 'hori']","no",206,"None","no",0,NA,2,"legacy",NA,1024,2,48000,-16,"experiment",19,"odd","red","yes",6,"diamond",404458.8656,669632.1486,669632.1967,NA,694207.2243,NA,NA,93390.4757,3618.09479999965,568083.9223,93390.4981999999,746633.1755,749562.7312,NA,NA,NA,NA,3618.17350000001,695289.8495,567576.8703,NA,746633.1895,695689.4723,746633.1259,"New experiment",19,"[0]","dist_absent",56,79,"yes","yes",1680,11.9657357073643,-14.6271742974806,"more toward","False","NR","NR","lp",NA,"Right",NA,"Right",0,NA,"first",1,"NR","ex"
"75",754.968600000138,20176.8180000009,67279.8158000025,14,53,"y",5,"['7', '8', '3', 'space']","n","#000000","no",713266.0001,2,"bias","psycho","psycho","psycho",0,"uniform",1,0,1,1,NA,1,0,NA,0,0,1,0,74,74,NA,NA,NA,NA,0,1,1,NA,74,1,74,73.2296414732588,"Fri Oct  1 11:29:35 2021","The main experiment item","yes","green","no","3","circle",NA,"pinging_target_expectations 4.0.osexp","C:\Users\etp-cp-ping\Desktop\LocalPC-EXP",75,"no","mono","no",18,"no","white","no","yes",1050,NA,6,"psycho",18,1,18,"C:/Users/etp-cp-ping/Desktop/LocalPC-EXP/subject-19.csv","psycho",1,75,19,"Lentiform Loewenfeld","3.3.8","['hori', 'hori', 'hori', 'vert', 'vert', 'vert', 'vert', 'hori']","no",206,"None","no",0,NA,2,"legacy",NA,1024,2,48000,-16,"experiment",19,"odd","red","no",4,"diamond",404458.8656,669632.1486,669632.1967,NA,694207.2243,NA,NA,93390.4757,3618.09479999965,568083.9223,93390.4981999999,749593.1156,752282.7609,NA,NA,NA,NA,3618.17350000001,695289.8495,567576.8703,NA,749593.1297,695689.4723,749593.0664,"New experiment",19,"[0]","dist_present",56,54,"yes","yes",1680,-0.862639292635616,-10.0084242974806,"more toward","False","NR","NR","hp","Left",NA,NA,NA,2,3,"first",6,"NR","in"
"76",1440.35110000009,21617.169100001,68720.1669000026,15,54,"y",5,"['7', '8', '3', 'space']","n","#000000","no",713266.0001,2,"bias","psycho","psycho","psycho",0,"uniform",1,0,1,1,NA,1,0,NA,0,0,1,0,75,75,NA,NA,NA,NA,0,1,1,NA,75,1,75,73.2296414732588,"Fri Oct  1 11:29:35 2021","The main experiment item","yes","red","no","7","circle",NA,"pinging_target_expectations 4.0.osexp","C:\Users\etp-cp-ping\Desktop\LocalPC-EXP",75,"no","mono","no",18,"no","white","no","yes",1050,NA,6,"psycho",19,1,19,"C:/Users/etp-cp-ping/Desktop/LocalPC-EXP/subject-19.csv","psycho",1,76,20,"Lentiform Loewenfeld","3.3.8","['hori', 'vert', 'vert', 'vert', 'hori', 'hori', 'hori', 'vert']","no",206,"None","no",0,NA,2,"legacy",NA,1024,2,48000,-16,"experiment",19,"odd","green","no",5,"diamond",404458.8656,669632.1486,669632.1967,NA,694207.2243,NA,NA,93390.4757,3618.09479999965,568083.9223,93390.4981999999,752313.2776,755434.7903,NA,NA,NA,NA,3618.17350000001,695289.8495,567576.8703,NA,752313.2917,695689.4723,752313.2276,"New experiment",19,"[0]","dist_present",56,68,"yes","yes",1680,-7.13582679263566,-14.7568617974806,"more toward","False","NR","NR","lp",NA,NA,NA,NA,1,-1,"first",4,"NR","in"
"77",1742.66970000009,23359.8388000011,70462.8366000027,16,55,"y",5,"['7', '8', '3', 'space']","n","#000000","no",755989.2676,2,"bias","psycho","psycho","psycho",0,"uniform",1,0,1,1,NA,1,0,NA,0,0,1,0,76,76,NA,NA,NA,NA,0,1,1,NA,76,1,76,73.2296414732588,"Fri Oct  1 11:29:35 2021","The main experiment item","yes","red","no","5","diamond",NA,"pinging_target_expectations 4.0.osexp","C:\Users\etp-cp-ping\Desktop\LocalPC-EXP",75,"no","mono","no",18,"no","white","no","yes",1050,NA,6,"psycho",20,1,20,"C:/Users/etp-cp-ping/Desktop/LocalPC-EXP/subject-19.csv","psycho",2,77,21,"Lentiform Loewenfeld","3.3.8","['hori', 'hori', 'vert', 'hori', 'vert', 'hori', 'vert', 'vert']","yes",106,"circles","no",0,NA,2,"legacy",NA,1024,2,48000,-16,"experiment",19,"odd","green","no",4,"circle",404458.8656,669632.1486,669632.1967,NA,694207.2243,NA,NA,93390.4757,3618.09479999965,568083.9223,93390.4981999999,755465.2958,758890.7709,NA,NA,NA,NA,3618.17350000001,695289.8495,567576.8703,NA,755465.3101,695689.4723,755465.2452,"New experiment",19,"[0]","dist_present",56,56,"yes","yes",1680,14.9683607073644,6.24507570251936,"more toward","False","NR","NR","lp","Right",NA,NA,NA,2,1,"first",5,"NR","in"
"78",1049.5051000003,24409.3439000014,71512.341700003,17,56,"y",5,"['7', '8', '3', 'space']","n","#000000","no",755989.2676,2,"bias","psycho","psycho","psycho",0,"uniform",1,0,1,1,NA,1,0,NA,0,0,1,0,77,77,NA,NA,NA,NA,0,1,1,NA,77,1,77,73.2296414732588,"Fri Oct  1 11:29:35 2021","The main experiment item","yes","green","yes","6","diamond",NA,"pinging_target_expectations 4.0.osexp","C:\Users\etp-cp-ping\Desktop\LocalPC-EXP",75,"no","mono","no",18,"no","white","no","yes",1050,NA,6,"psycho",21,1,21,"C:/Users/etp-cp-ping/Desktop/LocalPC-EXP/subject-19.csv","psycho",2,78,22,"Lentiform Loewenfeld","3.3.8","['vert', 'vert', 'hori', 'hori', 'vert', 'hori', 'hori', 'vert']","yes",106,"circles","no",0,NA,2,"legacy",NA,1024,2,48000,-16,"experiment",19,"odd","red","no",7,"circle",404458.8656,669632.1486,669632.1967,NA,694207.2243,NA,NA,93390.4757,3618.09479999965,568083.9223,93390.4981999999,758921.4223,761690.8431,NA,NA,NA,NA,3618.17350000001,695289.8495,567576.8703,NA,758921.4384,695689.4723,758921.371,"New experiment",19,"[0]","dist_present",56,87,"yes","yes",1680,12.8968607073642,1.9111382025194,"more toward","False","NR","NR","lp",NA,NA,NA,NA,-1,0,"first",4,"NR","in"
"79",782.383199999924,25191.7271000013,72294.7249000029,18,57,"y",5,"['7', '8', '3', 'space']","n","#000000","no",755989.2676,2,"bias","psycho","psycho","psycho",0,"uniform",1,0,1,1,NA,1,0,NA,0,0,1,0,78,78,NA,NA,NA,NA,0,1,1,NA,78,1,78,73.2296414732588,"Fri Oct  1 11:29:35 2021","The main experiment item","yes","green","no","4","diamond",NA,"pinging_target_expectations 4.0.osexp","C:\Users\etp-cp-ping\Desktop\LocalPC-EXP",75,"no","mono","no",18,"no","white","no","yes",1050,NA,6,"psycho",22,1,22,"C:/Users/etp-cp-ping/Desktop/LocalPC-EXP/subject-19.csv","psycho",2,79,23,"Lentiform Loewenfeld","3.3.8","['vert', 'hori', 'hori', 'hori', 'vert', 'vert', 'hori', 'vert']","yes",106,"circles","no",0,NA,2,"legacy",NA,1024,2,48000,-16,"experiment",19,"odd","red","yes",6,"circle",404458.8656,669632.1486,669632.1967,NA,694207.2243,NA,NA,93390.4757,3618.09479999965,568083.9223,93390.4981999999,761721.3871,764458.7,NA,NA,NA,NA,3618.17350000001,695289.8495,567576.8703,NA,761721.4013,695689.4723,761721.3354,"New experiment",19,"[0]","dist_present",56,75,"yes","yes",1680,22.3912357073642,24.2597632025194,"more away","False","NR","NR","lp",NA,"Right",NA,"Right",0,2,"first",7,"NR","ex"
"80",642.360500000068,25834.0876000014,72937.085400003,19,58,"y",5,"['7', '8', '3', 'space']","n","#000000","no",755989.2676,2,"bias","psycho","psycho","psycho",0,"uniform",1,0,1,1,NA,1,0,NA,0,0,1,0,79,79,NA,NA,NA,NA,0,1,1,NA,79,1,79,73.2296414732588,"Fri Oct  1 11:29:35 2021","The main experiment item","yes","red","no","None","diamond",NA,"pinging_target_expectations 4.0.osexp","C:\Users\etp-cp-ping\Desktop\LocalPC-EXP",75,"no","mono","no",18,"no","white","no","yes",1050,NA,6,"psycho",23,1,23,"C:/Users/etp-cp-ping/Desktop/LocalPC-EXP/subject-19.csv","psycho",2,80,24,"Lentiform Loewenfeld","3.3.8","['hori', 'vert', 'vert', 'hori', 'vert', 'hori', 'vert', 'hori']","yes",106,"circles","no",0,NA,2,"legacy",NA,1024,2,48000,-16,"experiment",19,"odd","green","no",0,"circle",404458.8656,669632.1486,669632.1967,NA,694207.2243,NA,NA,93390.4757,3618.09479999965,568083.9223,93390.4981999999,764489.1851,767226.6616,NA,NA,NA,NA,3618.17350000001,695289.8495,567576.8703,NA,764489.1988,695689.4723,764489.1331,"New experiment",19,"[0]","dist_absent",56,19,"yes","yes",1680,20.3669232073643,11.0270132025194,"more away","False","NR","NR","hp",NA,NA,NA,NA,-2,NA,"first",6,"NR","in"
"81",1064.91010000044,26898.9977000018,74001.9955000034,20,59,"y",5,"['7', '8', '3', 'space']","n","#000000","no",755989.2676,2,"bias","psycho","psycho","psycho",0,"uniform",1,0,1,1,NA,1,0,NA,0,0,1,0,80,80,NA,NA,NA,NA,0,1,1,NA,80,1,80,73.2296414732588,"Fri Oct  1 11:29:35 2021","The main experiment item","yes","green","yes","6","diamond",NA,"pinging_target_expectations 4.0.osexp","C:\Users\etp-cp-ping\Desktop\LocalPC-EXP",75,"no","mono","no",18,"no","white","no","yes",1050,NA,6,"psycho",24,1,24,"C:/Users/etp-cp-ping/Desktop/LocalPC-EXP/subject-19.csv","psycho",2,81,25,"Lentiform Loewenfeld","3.3.8","['hori', 'vert', 'hori', 'vert', 'vert', 'hori', 'hori', 'vert']","no",206,"None","no",0,NA,2,"legacy",NA,1024,2,48000,-16,"experiment",19,"odd","red","no",0,"circle",404458.8656,669632.1486,669632.1967,NA,694207.2243,NA,NA,93390.4757,3618.09479999965,568083.9223,93390.4981999999,767257.184,770234.6848,NA,NA,NA,NA,3618.17350000001,695289.8495,567576.8703,NA,767257.1979,695689.4723,767257.1334,"New experiment",19,"[0]","dist_present",56,17,"yes","yes",1680,21.6943607073643,7.05057570251938,"more away","False","R","NR","lp","Right",NA,"Right",NA,-2,0,"first",0,"NR","in"
