"","RT","RT_bl","RT_tot","acc_bl","acc_tot","answer_debrief_1","answer_debrief_2","answer_debrief_3","answer_debrief_4","background","bidi","blink_onset","block_cnt","block_type","canvas_backend","clock_backend","color_backend","compensation","coordinates","correct","count_block_loop","count_block_seq","count_block_settings","count_check_session","count_drift_correct","count_end_loop","count_end_seq","count_exp_settings","count_experiment","count_feedback","count_instructions","count_log_variables","count_logger","count_new_inline_script","count_new_pygaze_drift_correct","count_new_pygaze_start_recording","count_new_pygaze_stop_recording","count_pygaze","count_start_recording","count_stop_recording","count_test_location","count_trial","count_trial_loop","count_trial_seq","d_eye","datetime","description","disable_garbage_collection","dist_color","dist_high","dist_loc","dist_shape","empty_column","experiment_file","experiment_path","eye_threshold_length","font_bold","font_family","font_italic","font_size","font_underline","foreground","form_clicks","fullscreen","height","high_loc","high_prob_loc","keyboard_backend","live_row","live_row_block_loop","live_row_trial_loop","logfile","mouse_backend","nr_blinks","nr_trials","nr_trials_bl","opensesame_codename","opensesame_version","orient_list_trial","ping","ping_trigger","ping_type","practice","repeat_cycle","response","round_decimals","sampler_backend","session_nr","sound_buf_size","sound_channels","sound_freq","sound_sample_size","start","subject_nr","subject_parity","target_color","target_high","target_loc","target_shape","time_block_loop","time_block_seq","time_block_settings","time_check_session","time_drift_correct","time_end_loop","time_end_seq","time_exp_settings","time_experiment","time_feedback","time_instructions","time_log_variables","time_logger","time_new_inline_script","time_new_pygaze_drift_correct","time_new_pygaze_start_recording","time_new_pygaze_stop_recording","time_pygaze","time_start_recording","time_stop_recording","time_test_location","time_trial","time_trial_loop","time_trial_seq","title","total_blocks","tracker_dev","trial_type","trials_in_block","trigger","uniform_coordinates","update_blinks","width","x","y","toward","containsNaN","rept","repd","prevtar","pd","nt","pd_c","nt_c","tar_dist","dist_dist","prevHP","eegTar","repteeg","tarcounter"
"1",852.94349999819,852.94349999819,852.94349999819,1,1,"y",7,"['1', '1', '1', '1', '1', '1', '1', '1', '1', '1', '1', '3', '1', '3', '1', '3', '1', '3', '1', '3', '1', '3', '2', '1', '2', '3', '2', '1', '2', '3', '1', '1', '2', 'space']","y","#000000","no",6444.66629999806,1,"neutral","psycho","psycho","psycho",0,"uniform",1,0,0,0,NA,0,0,NA,0,0,0,0,0,0,NA,NA,NA,NA,0,0,0,NA,0,0,0,73.2296414732588,"Mon Nov  1 15:03:21 2021","The main experiment item","yes","green","no","5","circle",NA,"pinging_target_expectations 5.0.osexp","C:\Users\etp-cp-ping\Desktop\LocalPC-EXP",75,"no","mono","no",18,"no","white","no","yes",1050,NA,100,"psycho",0,0,0,"C:/Users/etp-cp-ping/Desktop/LocalPC-EXP/subject-23.csv","psycho",0,1,1,"Lentiform Loewenfeld","3.3.8","['vert', 'hori', 'hori', 'vert', 'hori', 'vert', 'vert', 'hori']","no",209,"None","yes",0,NA,2,"legacy",NA,1024,2,48000,-16,"experiment",23,"odd","red","no",0,"diamond",352461.3293,352471.9683,352472.010599999,NA,361021.347999998,NA,NA,62305.3899999977,6449.63709999865,NA,62305.4133999976,362272.7844,364878.430500001,NA,NA,NA,NA,6449.69729999866,361800.012699998,NA,NA,362272.799999999,362268.377500001,362272.7347,"New experiment",19,"[0]","dist_present",56,16,"yes","yes",1680,NA,NA,NA,NA,"NR","NR","lp","Right",NA,NA,NA,NA,NA,"practice",999,"NR","in"
"2",704.736300001969,1557.67980000016,1557.67980000016,1,1,"y",7,"['1', '1', '1', '1', '1', '1', '1', '1', '1', '1', '1', '3', '1', '3', '1', '3', '1', '3', '1', '3', '1', '3', '2', '1', '2', '3', '2', '1', '2', '3', '1', '1', '2', 'space']","y","#000000","no",6444.66629999806,1,"neutral","psycho","psycho","psycho",0,"uniform",0,0,0,0,NA,0,0,NA,0,0,0,0,1,1,NA,NA,NA,NA,0,0,0,NA,1,0,1,73.2296414732588,"Mon Nov  1 15:03:21 2021","The main experiment item","yes","red","no","0","diamond",NA,"pinging_target_expectations 5.0.osexp","C:\Users\etp-cp-ping\Desktop\LocalPC-EXP",75,"no","mono","no",18,"no","white","no","yes",1050,NA,100,"psycho",1,0,1,"C:/Users/etp-cp-ping/Desktop/LocalPC-EXP/subject-23.csv","psycho",0,2,2,"Lentiform Loewenfeld","3.3.8","['vert', 'vert', 'hori', 'hori', 'vert', 'hori', 'hori', 'vert']","yes",109,"diamond","yes",0,NA,2,"legacy",NA,1024,2,48000,-16,"experiment",23,"odd","green","no",2,"circle",352461.3293,352471.9683,352472.010599999,NA,361021.347999998,NA,NA,62305.3899999977,6449.63709999865,NA,62305.4133999976,364920.302399998,367534.4941,NA,NA,NA,NA,6449.69729999866,361800.012699998,NA,NA,364920.317100001,362268.377500001,364920.250899999,"New experiment",19,"[0]","dist_present",56,31,"yes","yes",1680,NA,NA,NA,NA,"NR","NR","lp",NA,"Left",NA,"Left",NA,NA,"practice",0,"NR","in"
"3",868.0932999996,2425.77309999976,2425.77309999976,2,2,"y",7,"['1', '1', '1', '1', '1', '1', '1', '1', '1', '1', '1', '3', '1', '3', '1', '3', '1', '3', '1', '3', '1', '3', '2', '1', '2', '3', '2', '1', '2', '3', '1', '1', '2', 'space']","y","#000000","no",6444.66629999806,1,"neutral","psycho","psycho","psycho",0,"uniform",1,0,0,0,NA,0,0,NA,0,0,0,0,2,2,NA,NA,NA,NA,0,0,0,NA,2,0,2,73.2296414732588,"Mon Nov  1 15:03:21 2021","The main experiment item","yes","green","no","5","circle",NA,"pinging_target_expectations 5.0.osexp","C:\Users\etp-cp-ping\Desktop\LocalPC-EXP",75,"no","mono","no",18,"no","white","no","yes",1050,NA,100,"psycho",2,0,2,"C:/Users/etp-cp-ping/Desktop/LocalPC-EXP/subject-23.csv","psycho",0,3,3,"Lentiform Loewenfeld","3.3.8","['vert', 'hori', 'hori', 'vert', 'vert', 'vert', 'hori', 'hori']","no",209,"None","yes",0,NA,2,"legacy",NA,1024,2,48000,-16,"experiment",23,"odd","red","no",4,"diamond",352461.3293,352471.9683,352472.010599999,NA,361021.347999998,NA,NA,62305.3899999977,6449.63709999865,NA,62305.4133999976,367565.836199999,370302.448999999,NA,NA,NA,NA,6449.69729999866,361800.012699998,NA,NA,367565.850999999,362268.377500001,367565.779099998,"New experiment",19,"[0]","dist_present",56,56,"yes","yes",1680,NA,NA,NA,NA,"NR","NR","lp","Right",NA,NA,NA,NA,NA,"practice",2,"NR","in"
"4",1301.06069999968,3726.83379999944,3726.83379999944,3,3,"y",7,"['1', '1', '1', '1', '1', '1', '1', '1', '1', '1', '1', '3', '1', '3', '1', '3', '1', '3', '1', '3', '1', '3', '2', '1', '2', '3', '2', '1', '2', '3', '1', '1', '2', 'space']","y","#000000","no",6444.66629999806,1,"neutral","psycho","psycho","psycho",0,"uniform",1,0,0,0,NA,0,0,NA,0,0,0,0,3,3,NA,NA,NA,NA,0,0,0,NA,3,0,3,73.2296414732588,"Mon Nov  1 15:03:21 2021","The main experiment item","yes","green","no","None","diamond",NA,"pinging_target_expectations 5.0.osexp","C:\Users\etp-cp-ping\Desktop\LocalPC-EXP",75,"no","mono","no",18,"no","white","no","yes",1050,NA,100,"psycho",3,0,3,"C:/Users/etp-cp-ping/Desktop/LocalPC-EXP/subject-23.csv","psycho",0,4,4,"Lentiform Loewenfeld","3.3.8","['vert', 'hori', 'vert', 'vert', 'hori', 'hori', 'hori', 'vert']","no",209,"None","yes",0,NA,2,"legacy",NA,1024,2,48000,-16,"experiment",23,"odd","red","no",0,"circle",352461.3293,352471.9683,352472.010599999,NA,361021.347999998,NA,NA,62305.3899999977,6449.63709999865,NA,62305.4133999976,370333.282399999,373758.441800001,NA,NA,NA,NA,6449.69729999866,361800.012699998,NA,NA,370333.296999997,362268.377500001,370333.230299999,"New experiment",19,"[0]","dist_absent",56,19,"yes","yes",1680,NA,NA,NA,NA,"NR","NR","lp",NA,NA,NA,NA,NA,NA,"practice",4,"NR","in"
"5",852.509399999632,4579.34319999907,4579.34319999907,4,4,"y",7,"['1', '1', '1', '1', '1', '1', '1', '1', '1', '1', '1', '3', '1', '3', '1', '3', '1', '3', '1', '3', '1', '3', '2', '1', '2', '3', '2', '1', '2', '3', '1', '1', '2', 'space']","y","#000000","no",6444.66629999806,1,"neutral","psycho","psycho","psycho",0,"uniform",1,0,0,0,NA,0,0,NA,0,0,0,0,4,4,NA,NA,NA,NA,0,0,0,NA,4,0,4,73.2296414732588,"Mon Nov  1 15:03:21 2021","The main experiment item","yes","green","no","5","diamond",NA,"pinging_target_expectations 5.0.osexp","C:\Users\etp-cp-ping\Desktop\LocalPC-EXP",75,"no","mono","no",18,"no","white","no","yes",1050,NA,100,"psycho",4,0,4,"C:/Users/etp-cp-ping/Desktop/LocalPC-EXP/subject-23.csv","psycho",0,5,5,"Lentiform Loewenfeld","3.3.8","['vert', 'hori', 'vert', 'hori', 'hori', 'hori', 'vert', 'vert']","yes",109,"diamond","yes",0,NA,2,"legacy",NA,1024,2,48000,-16,"experiment",23,"odd","red","no",1,"circle",352461.3293,352471.9683,352472.010599999,NA,361021.347999998,NA,NA,62305.3899999977,6449.63709999865,NA,62305.4133999976,373789.152599999,376782.448399998,NA,NA,NA,NA,6449.69729999866,361800.012699998,NA,NA,373789.170399999,362268.377500001,373789.100399998,"New experiment",19,"[0]","dist_present",56,26,"yes","yes",1680,NA,NA,NA,NA,"NR","NR","lp",NA,NA,NA,NA,NA,NA,"practice",0,"NR","in"
"6",974.494400001247,5553.83760000032,5553.83760000032,5,5,"y",7,"['1', '1', '1', '1', '1', '1', '1', '1', '1', '1', '1', '3', '1', '3', '1', '3', '1', '3', '1', '3', '1', '3', '2', '1', '2', '3', '2', '1', '2', '3', '1', '1', '2', 'space']","y","#000000","no",6444.66629999806,1,"neutral","psycho","psycho","psycho",0,"uniform",1,0,0,0,NA,0,0,NA,0,0,0,0,5,5,NA,NA,NA,NA,0,0,0,NA,5,0,5,73.2296414732588,"Mon Nov  1 15:03:21 2021","The main experiment item","yes","red","no","None","diamond",NA,"pinging_target_expectations 5.0.osexp","C:\Users\etp-cp-ping\Desktop\LocalPC-EXP",75,"no","mono","no",18,"no","white","no","yes",1050,NA,100,"psycho",5,0,5,"C:/Users/etp-cp-ping/Desktop/LocalPC-EXP/subject-23.csv","psycho",0,6,6,"Lentiform Loewenfeld","3.3.8","['vert', 'hori', 'hori', 'vert', 'vert', 'hori', 'hori', 'vert']","no",209,"None","yes",0,NA,2,"legacy",NA,1024,2,48000,-16,"experiment",23,"odd","green","no",3,"circle",352461.3293,352471.9683,352472.010599999,NA,361021.347999998,NA,NA,62305.3899999977,6449.63709999865,NA,62305.4133999976,376813.423299998,379790.513100001,NA,NA,NA,NA,6449.69729999866,361800.012699998,NA,NA,376813.4379,362268.377500001,376813.371,"New experiment",19,"[0]","dist_absent",56,49,"yes","yes",1680,NA,NA,NA,NA,"NR","NR","lp",NA,"Left",NA,NA,NA,NA,"practice",1,"NR","in"
"7",716.248500000802,6270.08610000112,6270.08610000112,6,6,"y",7,"['1', '1', '1', '1', '1', '1', '1', '1', '1', '1', '1', '3', '1', '3', '1', '3', '1', '3', '1', '3', '1', '3', '2', '1', '2', '3', '2', '1', '2', '3', '1', '1', '2', 'space']","y","#000000","no",6444.66629999806,1,"neutral","psycho","psycho","psycho",0,"uniform",1,0,0,0,NA,0,0,NA,0,0,0,0,6,6,NA,NA,NA,NA,0,0,0,NA,6,0,6,73.2296414732588,"Mon Nov  1 15:03:21 2021","The main experiment item","yes","green","no","None","diamond",NA,"pinging_target_expectations 5.0.osexp","C:\Users\etp-cp-ping\Desktop\LocalPC-EXP",75,"no","mono","no",18,"no","white","no","yes",1050,NA,100,"psycho",6,0,6,"C:/Users/etp-cp-ping/Desktop/LocalPC-EXP/subject-23.csv","psycho",0,7,7,"Lentiform Loewenfeld","3.3.8","['hori', 'hori', 'vert', 'vert', 'vert', 'vert', 'hori', 'hori']","no",209,"None","yes",0,NA,2,"legacy",NA,1024,2,48000,-16,"experiment",23,"odd","red","no",0,"circle",352461.3293,352471.9683,352472.010599999,NA,361021.347999998,NA,NA,62305.3899999977,6449.63709999865,NA,62305.4133999976,379821.644399999,382462.3828,NA,NA,NA,NA,6449.69729999866,361800.012699998,NA,NA,379821.6593,362268.377500001,379821.590899999,"New experiment",19,"[0]","dist_absent",56,19,"yes","yes",1680,NA,NA,NA,NA,"NR","R","lp",NA,NA,NA,NA,NA,NA,"practice",3,"NR","in"
"8",1036.07220000052,7306.15830000164,7306.15830000164,6,6,"y",7,"['1', '1', '1', '1', '1', '1', '1', '1', '1', '1', '1', '3', '1', '3', '1', '3', '1', '3', '1', '3', '1', '3', '2', '1', '2', '3', '2', '1', '2', '3', '1', '1', '2', 'space']","y","#000000","no",6444.66629999806,1,"neutral","psycho","psycho","psycho",0,"uniform",0,0,0,0,NA,0,0,NA,0,0,0,0,7,7,NA,NA,NA,NA,0,0,0,NA,7,0,7,73.2296414732588,"Mon Nov  1 15:03:21 2021","The main experiment item","yes","red","no","1","diamond",NA,"pinging_target_expectations 5.0.osexp","C:\Users\etp-cp-ping\Desktop\LocalPC-EXP",75,"no","mono","no",18,"no","white","no","yes",1050,NA,100,"psycho",7,0,7,"C:/Users/etp-cp-ping/Desktop/LocalPC-EXP/subject-23.csv","psycho",0,8,8,"Lentiform Loewenfeld","3.3.8","['vert', 'hori', 'vert', 'hori', 'vert', 'vert', 'hori', 'hori']","yes",109,"circles","yes",0,NA,2,"legacy",NA,1024,2,48000,-16,"experiment",23,"odd","green","no",4,"circle",352461.3293,352471.9683,352472.010599999,NA,361021.347999998,NA,NA,62305.3899999977,6449.63709999865,NA,62305.4133999976,382493.202999998,385406.399299998,NA,NA,NA,NA,6449.69729999866,361800.012699998,NA,NA,382493.2176,362268.377500001,382493.1507,"New experiment",19,"[0]","dist_present",56,52,"yes","yes",1680,NA,NA,NA,NA,"NR","NR","lp","Left",NA,NA,NA,NA,NA,"practice",0,"NR","in"
"9",862.470500000229,8168.62880000187,8168.62880000187,6,6,"y",7,"['1', '1', '1', '1', '1', '1', '1', '1', '1', '1', '1', '3', '1', '3', '1', '3', '1', '3', '1', '3', '1', '3', '2', '1', '2', '3', '2', '1', '2', '3', '1', '1', '2', 'space']","y","#000000","no",6444.66629999806,1,"neutral","psycho","psycho","psycho",0,"uniform",0,0,0,0,NA,0,0,NA,0,0,0,0,8,8,NA,NA,NA,NA,0,0,0,NA,8,0,8,73.2296414732588,"Mon Nov  1 15:03:21 2021","The main experiment item","yes","green","no","7","circle",NA,"pinging_target_expectations 5.0.osexp","C:\Users\etp-cp-ping\Desktop\LocalPC-EXP",75,"no","mono","no",18,"no","white","no","yes",1050,NA,100,"psycho",8,0,8,"C:/Users/etp-cp-ping/Desktop/LocalPC-EXP/subject-23.csv","psycho",0,9,9,"Lentiform Loewenfeld","3.3.8","['hori', 'hori', 'vert', 'vert', 'hori', 'vert', 'vert', 'hori']","yes",109,"circles","yes",0,NA,2,"legacy",NA,1024,2,48000,-16,"experiment",23,"odd","red","no",6,"diamond",352461.3293,352471.9683,352472.010599999,NA,361021.347999998,NA,NA,62305.3899999977,6449.63709999865,NA,62305.4133999976,385437.114299999,388270.388299999,NA,NA,NA,NA,6449.69729999866,361800.012699998,NA,NA,385437.128899997,362268.377500001,385437.0629,"New experiment",19,"[0]","dist_present",56,78,"yes","yes",1680,NA,NA,NA,NA,"NR","NR","lp",NA,NA,NA,NA,NA,NA,"practice",4,"NR","in"
"10",662.028999999166,8830.65780000103,8830.65780000103,6,6,"y",7,"['1', '1', '1', '1', '1', '1', '1', '1', '1', '1', '1', '3', '1', '3', '1', '3', '1', '3', '1', '3', '1', '3', '2', '1', '2', '3', '2', '1', '2', '3', '1', '1', '2', 'space']","y","#000000","no",6444.66629999806,1,"neutral","psycho","psycho","psycho",0,"uniform",0,0,0,0,NA,0,0,NA,0,0,0,0,9,9,NA,NA,NA,NA,0,0,0,NA,9,0,9,73.2296414732588,"Mon Nov  1 15:03:21 2021","The main experiment item","yes","green","no","None","circle",NA,"pinging_target_expectations 5.0.osexp","C:\Users\etp-cp-ping\Desktop\LocalPC-EXP",75,"no","mono","no",18,"no","white","no","yes",1050,NA,100,"psycho",9,0,9,"C:/Users/etp-cp-ping/Desktop/LocalPC-EXP/subject-23.csv","psycho",0,10,10,"Lentiform Loewenfeld","3.3.8","['hori', 'hori', 'hori', 'vert', 'vert', 'vert', 'hori', 'vert']","yes",109,"diamond","yes",0,NA,2,"legacy",NA,1024,2,48000,-16,"experiment",23,"odd","red","no",5,"diamond",352461.3293,352471.9683,352472.010599999,NA,361021.347999998,NA,NA,62305.3899999977,6449.63709999865,NA,62305.4133999976,388300.994599998,390718.3878,NA,NA,NA,NA,6449.69729999866,361800.012699998,NA,NA,388301.009299998,362268.377500001,388300.941499998,"New experiment",19,"[0]","dist_absent",56,69,"yes","yes",1680,NA,NA,NA,NA,"NR","NR","lp",NA,"Right",NA,NA,NA,NA,"practice",6,"NR","in"
"11",710.817600000184,9541.47540000122,9541.47540000122,6,6,"y",7,"['1', '1', '1', '1', '1', '1', '1', '1', '1', '1', '1', '3', '1', '3', '1', '3', '1', '3', '1', '3', '1', '3', '2', '1', '2', '3', '2', '1', '2', '3', '1', '1', '2', 'space']","y","#000000","no",6444.66629999806,1,"neutral","psycho","psycho","psycho",0,"uniform",0,0,0,0,NA,0,0,NA,0,0,0,0,10,10,NA,NA,NA,NA,0,0,0,NA,10,0,10,73.2296414732588,"Mon Nov  1 15:03:21 2021","The main experiment item","yes","red","no","3","circle",NA,"pinging_target_expectations 5.0.osexp","C:\Users\etp-cp-ping\Desktop\LocalPC-EXP",75,"no","mono","no",18,"no","white","no","yes",1050,NA,100,"psycho",10,0,10,"C:/Users/etp-cp-ping/Desktop/LocalPC-EXP/subject-23.csv","psycho",0,11,11,"Lentiform Loewenfeld","3.3.8","['vert', 'vert', 'hori', 'vert', 'hori', 'hori', 'vert', 'hori']","yes",109,"diamond","yes",0,NA,2,"legacy",NA,1024,2,48000,-16,"experiment",23,"odd","green","no",7,"diamond",352461.3293,352471.9683,352472.010599999,NA,361021.347999998,NA,NA,62305.3899999977,6449.63709999865,NA,62305.4133999976,390749.6899,393358.4137,NA,NA,NA,NA,6449.69729999866,361800.012699998,NA,NA,390749.704899998,362268.377500001,390749.637299999,"New experiment",19,"[0, 73.3902039853877, 73.35013064091441, 73.5979141437401]","dist_present",56,84,"yes","yes",1680,NA,NA,NA,NA,"NR","NR","lp",NA,NA,NA,NA,NA,NA,"practice",5,"NR","in"
"12",1126.31309999782,10667.788499999,10667.788499999,7,7,"y",7,"['1', '1', '1', '1', '1', '1', '1', '1', '1', '1', '1', '3', '1', '3', '1', '3', '1', '3', '1', '3', '1', '3', '2', '1', '2', '3', '2', '1', '2', '3', '1', '1', '2', 'space']","y","#000000","no",6444.66629999806,1,"neutral","psycho","psycho","psycho",0,"uniform",1,0,0,0,NA,0,0,NA,0,0,0,0,11,11,NA,NA,NA,NA,0,0,0,NA,11,0,11,73.2296414732588,"Mon Nov  1 15:03:21 2021","The main experiment item","yes","red","no","None","circle",NA,"pinging_target_expectations 5.0.osexp","C:\Users\etp-cp-ping\Desktop\LocalPC-EXP",75,"no","mono","no",18,"no","white","no","yes",1050,NA,100,"psycho",11,0,11,"C:/Users/etp-cp-ping/Desktop/LocalPC-EXP/subject-23.csv","psycho",0,12,12,"Lentiform Loewenfeld","3.3.8","['hori', 'hori', 'vert', 'vert', 'hori', 'hori', 'vert', 'vert']","no",209,"None","yes",0,NA,2,"legacy",NA,1024,2,48000,-16,"experiment",23,"odd","green","no",4,"diamond",352461.3293,352471.9683,352472.010599999,NA,361021.347999998,NA,NA,62305.3899999977,6449.63709999865,NA,62305.4133999976,393389.233599999,396654.386800001,NA,NA,NA,NA,6449.69729999866,361800.012699998,NA,NA,393389.248299998,362268.377500001,393389.1812,"New experiment",19,"[0]","dist_absent",56,59,"yes","yes",1680,NA,NA,NA,NA,"NR","NR","lp",NA,NA,NA,NA,NA,NA,"practice",7,"NR","in"
"13",738.676500000991,11406.465,11406.465,8,8,"y",7,"['1', '1', '1', '1', '1', '1', '1', '1', '1', '1', '1', '3', '1', '3', '1', '3', '1', '3', '1', '3', '1', '3', '2', '1', '2', '3', '2', '1', '2', '3', '1', '1', '2', 'space']","y","#000000","no",6444.66629999806,1,"neutral","psycho","psycho","psycho",0,"uniform",1,0,0,0,NA,0,0,NA,0,0,0,0,12,12,NA,NA,NA,NA,0,0,0,NA,12,0,12,73.2296414732588,"Mon Nov  1 15:03:21 2021","The main experiment item","yes","green","no","3","diamond",NA,"pinging_target_expectations 5.0.osexp","C:\Users\etp-cp-ping\Desktop\LocalPC-EXP",75,"no","mono","no",18,"no","white","no","yes",1050,NA,100,"psycho",12,0,12,"C:/Users/etp-cp-ping/Desktop/LocalPC-EXP/subject-23.csv","psycho",0,13,13,"Lentiform Loewenfeld","3.3.8","['hori', 'vert', 'vert', 'hori', 'hori', 'vert', 'vert', 'hori']","no",209,"None","yes",0,NA,2,"legacy",NA,1024,2,48000,-16,"experiment",23,"odd","red","no",0,"circle",352461.3293,352471.9683,352472.010599999,NA,361021.347999998,NA,NA,62305.3899999977,6449.63709999865,NA,62305.4133999976,396689.0542,399310.460199998,NA,NA,NA,NA,6449.69729999866,361800.012699998,NA,NA,396689.0695,362268.377500001,396689.001399998,"New experiment",19,"[0]","dist_present",56,14,"yes","yes",1680,NA,NA,NA,NA,"NR","NR","lp","Left",NA,NA,NA,NA,NA,"practice",4,"NR","in"
"14",852.815900001558,12259.2809000016,12259.2809000016,8,8,"y",7,"['1', '1', '1', '1', '1', '1', '1', '1', '1', '1', '1', '3', '1', '3', '1', '3', '1', '3', '1', '3', '1', '3', '2', '1', '2', '3', '2', '1', '2', '3', '1', '1', '2', 'space']","y","#000000","no",6444.66629999806,1,"neutral","psycho","psycho","psycho",0,"uniform",0,0,0,0,NA,0,0,NA,0,0,0,0,13,13,NA,NA,NA,NA,0,0,0,NA,13,0,13,73.2296414732588,"Mon Nov  1 15:03:21 2021","The main experiment item","yes","red","no","6","circle",NA,"pinging_target_expectations 5.0.osexp","C:\Users\etp-cp-ping\Desktop\LocalPC-EXP",75,"no","mono","no",18,"no","white","no","yes",1050,NA,100,"psycho",13,0,13,"C:/Users/etp-cp-ping/Desktop/LocalPC-EXP/subject-23.csv","psycho",0,14,14,"Lentiform Loewenfeld","3.3.8","['vert', 'vert', 'hori', 'hori', 'vert', 'hori', 'hori', 'vert']","yes",109,"circles","yes",0,NA,2,"legacy",NA,1024,2,48000,-16,"experiment",23,"odd","green","no",7,"diamond",352461.3293,352471.9683,352472.010599999,NA,361021.347999998,NA,NA,62305.3899999977,6449.63709999865,NA,62305.4133999976,399341.509899998,402078.3944,NA,NA,NA,NA,6449.69729999866,361800.012699998,NA,NA,399341.524699998,362268.377500001,399341.457099999,"New experiment",19,"[0]","dist_present",56,87,"yes","yes",1680,NA,NA,NA,NA,"NR","NR","lp",NA,NA,NA,NA,NA,NA,"practice",0,"NR","in"
"15",1157.15940000152,13416.4403000031,13416.4403000031,9,9,"y",7,"['1', '1', '1', '1', '1', '1', '1', '1', '1', '1', '1', '3', '1', '3', '1', '3', '1', '3', '1', '3', '1', '3', '2', '1', '2', '3', '2', '1', '2', '3', '1', '1', '2', 'space']","y","#000000","no",6444.66629999806,1,"neutral","psycho","psycho","psycho",0,"uniform",1,0,0,0,NA,0,0,NA,0,0,0,0,14,14,NA,NA,NA,NA,0,0,0,NA,14,0,14,73.2296414732588,"Mon Nov  1 15:03:21 2021","The main experiment item","yes","green","no","7","diamond",NA,"pinging_target_expectations 5.0.osexp","C:\Users\etp-cp-ping\Desktop\LocalPC-EXP",75,"no","mono","no",18,"no","white","no","yes",1050,NA,100,"psycho",14,0,14,"C:/Users/etp-cp-ping/Desktop/LocalPC-EXP/subject-23.csv","psycho",0,15,15,"Lentiform Loewenfeld","3.3.8","['vert', 'hori', 'hori', 'hori', 'vert', 'vert', 'vert', 'hori']","no",209,"None","yes",0,NA,2,"legacy",NA,1024,2,48000,-16,"experiment",23,"odd","red","no",1,"circle",352461.3293,352471.9683,352472.010599999,NA,361021.347999998,NA,NA,62305.3899999977,6449.63709999865,NA,62305.4133999976,402109.1022,405150.401899999,NA,NA,NA,NA,6449.69729999866,361800.012699998,NA,NA,402109.117100001,362268.377500001,402109.0491,"New experiment",19,"[0]","dist_present",56,28,"yes","yes",1680,NA,NA,NA,NA,"NR","NR","lp",NA,NA,NA,NA,NA,NA,"practice",7,"NR","in"
"16",2000.64800000109,15417.0883000042,15417.0883000042,9,9,"y",7,"['1', '1', '1', '1', '1', '1', '1', '1', '1', '1', '1', '3', '1', '3', '1', '3', '1', '3', '1', '3', '1', '3', '2', '1', '2', '3', '2', '1', '2', '3', '1', '1', '2', 'space']","y","#000000","no",6444.66629999806,1,"neutral","psycho","psycho","psycho",0,"uniform",0,0,0,0,NA,0,0,NA,0,0,0,0,15,15,NA,NA,NA,NA,0,0,0,NA,15,0,15,73.2296414732588,"Mon Nov  1 15:03:21 2021","The main experiment item","yes","green","no","None","circle",NA,"pinging_target_expectations 5.0.osexp","C:\Users\etp-cp-ping\Desktop\LocalPC-EXP",75,"no","mono","no",18,"no","white","no","yes",1050,NA,100,"psycho",15,0,15,"C:/Users/etp-cp-ping/Desktop/LocalPC-EXP/subject-23.csv","psycho",0,16,16,"Lentiform Loewenfeld","3.3.8","['vert', 'hori', 'vert', 'vert', 'vert', 'hori', 'hori', 'hori']","yes",109,"diamond","yes",0,NA,2,"legacy",NA,1024,2,48000,-16,"experiment",23,"odd","red","no",6,"diamond",352461.3293,352471.9683,352472.010599999,NA,361021.347999998,NA,NA,62305.3899999977,6449.63709999865,NA,62305.4133999976,405181.2474,408919.009599998,NA,NA,NA,NA,6449.69729999866,361800.012699998,NA,NA,405181.261999998,362268.377500001,405181.194299999,"New experiment",19,"[0]","dist_absent",56,79,"yes","yes",1680,NA,NA,NA,NA,"NR","NR","lp",NA,"Right",NA,"Right",NA,NA,"practice",1,"NR","in"
"17",819.213700000546,16236.3020000047,16236.3020000047,9,9,"y",7,"['1', '1', '1', '1', '1', '1', '1', '1', '1', '1', '1', '3', '1', '3', '1', '3', '1', '3', '1', '3', '1', '3', '2', '1', '2', '3', '2', '1', '2', '3', '1', '1', '2', 'space']","y","#000000","no",6444.66629999806,1,"neutral","psycho","psycho","psycho",0,"uniform",0,0,0,0,NA,0,0,NA,0,0,0,0,16,16,NA,NA,NA,NA,0,0,0,NA,16,0,16,73.2296414732588,"Mon Nov  1 15:03:21 2021","The main experiment item","yes","red","no","1","diamond",NA,"pinging_target_expectations 5.0.osexp","C:\Users\etp-cp-ping\Desktop\LocalPC-EXP",75,"no","mono","no",18,"no","white","no","yes",1050,NA,100,"psycho",16,0,16,"C:/Users/etp-cp-ping/Desktop/LocalPC-EXP/subject-23.csv","psycho",0,17,17,"Lentiform Loewenfeld","3.3.8","['vert', 'vert', 'vert', 'vert', 'hori', 'hori', 'hori', 'hori']","yes",109,"circles","yes",0,NA,2,"legacy",NA,1024,2,48000,-16,"experiment",23,"odd","green","no",4,"circle",352461.3293,352471.9683,352472.010599999,NA,361021.347999998,NA,NA,62305.3899999977,6449.63709999865,NA,62305.4133999976,408949.551399997,411630.383,NA,NA,NA,NA,6449.69729999866,361800.012699998,NA,NA,408949.566499999,362268.377500001,408949.499099999,"New experiment",19,"[0]","dist_present",56,52,"yes","yes",1680,NA,NA,NA,NA,"NR","NR","lp","Left",NA,NA,NA,NA,NA,"practice",6,"NR","in"
"18",889.828000003065,17126.1300000078,17126.1300000078,10,10,"y",7,"['1', '1', '1', '1', '1', '1', '1', '1', '1', '1', '1', '3', '1', '3', '1', '3', '1', '3', '1', '3', '1', '3', '2', '1', '2', '3', '2', '1', '2', '3', '1', '1', '2', 'space']","y","#000000","no",6444.66629999806,1,"neutral","psycho","psycho","psycho",0,"uniform",1,0,0,0,NA,0,0,NA,0,0,0,0,17,17,NA,NA,NA,NA,0,0,0,NA,17,0,17,73.2296414732588,"Mon Nov  1 15:03:21 2021","The main experiment item","yes","green","no","None","diamond",NA,"pinging_target_expectations 5.0.osexp","C:\Users\etp-cp-ping\Desktop\LocalPC-EXP",75,"no","mono","no",18,"no","white","no","yes",1050,NA,100,"psycho",17,0,17,"C:/Users/etp-cp-ping/Desktop/LocalPC-EXP/subject-23.csv","psycho",0,18,18,"Lentiform Loewenfeld","3.3.8","['vert', 'hori', 'vert', 'hori', 'hori', 'vert', 'vert', 'hori']","yes",109,"circles","yes",0,NA,2,"legacy",NA,1024,2,48000,-16,"experiment",23,"odd","red","no",5,"circle",352461.3293,352471.9683,352472.010599999,NA,361021.347999998,NA,NA,62305.3899999977,6449.63709999865,NA,62305.4133999976,411662.496699999,414542.342299999,NA,NA,NA,NA,6449.69729999866,361800.012699998,NA,NA,411662.5116,362268.377500001,411662.444099999,"New experiment",19,"[0]","dist_absent",56,69,"yes","yes",1680,NA,NA,NA,NA,"NR","NR","lp",NA,"Right",NA,NA,NA,NA,"practice",4,"NR","in"
"19",1245.28420000203,18371.4142000098,18371.4142000098,11,11,"y",7,"['1', '1', '1', '1', '1', '1', '1', '1', '1', '1', '1', '3', '1', '3', '1', '3', '1', '3', '1', '3', '1', '3', '2', '1', '2', '3', '2', '1', '2', '3', '1', '1', '2', 'space']","y","#000000","no",6444.66629999806,1,"neutral","psycho","psycho","psycho",0,"uniform",1,0,0,0,NA,0,0,NA,0,0,0,0,18,18,NA,NA,NA,NA,0,0,0,NA,18,0,18,73.2296414732588,"Mon Nov  1 15:03:21 2021","The main experiment item","yes","green","no","5","diamond",NA,"pinging_target_expectations 5.0.osexp","C:\Users\etp-cp-ping\Desktop\LocalPC-EXP",75,"no","mono","no",18,"no","white","no","yes",1050,NA,100,"psycho",18,0,18,"C:/Users/etp-cp-ping/Desktop/LocalPC-EXP/subject-23.csv","psycho",0,19,19,"Lentiform Loewenfeld","3.3.8","['vert', 'hori', 'hori', 'vert', 'hori', 'vert', 'vert', 'hori']","no",209,"None","yes",0,NA,2,"legacy",NA,1024,2,48000,-16,"experiment",23,"odd","red","no",0,"circle",352461.3293,352471.9683,352472.010599999,NA,361021.347999998,NA,NA,62305.3899999977,6449.63709999865,NA,62305.4133999976,414573.232399998,417758.342599998,NA,NA,NA,NA,6449.69729999866,361800.012699998,NA,NA,414573.247199998,362268.377500001,414573.179499999,"New experiment",19,"[0]","dist_present",56,16,"yes","yes",1680,NA,NA,NA,NA,"NR","NR","lp","Right",NA,NA,NA,NA,NA,"practice",5,"NR","in"
"20",1647.61729999736,20019.0315000072,20019.0315000072,12,12,"y",7,"['1', '1', '1', '1', '1', '1', '1', '1', '1', '1', '1', '3', '1', '3', '1', '3', '1', '3', '1', '3', '1', '3', '2', '1', '2', '3', '2', '1', '2', '3', '1', '1', '2', 'space']","y","#000000","no",6444.66629999806,1,"neutral","psycho","psycho","psycho",0,"uniform",1,0,0,0,NA,0,0,NA,0,0,0,0,19,19,NA,NA,NA,NA,0,0,0,NA,19,0,19,73.2296414732588,"Mon Nov  1 15:03:21 2021","The main experiment item","yes","green","no","0","diamond",NA,"pinging_target_expectations 5.0.osexp","C:\Users\etp-cp-ping\Desktop\LocalPC-EXP",75,"no","mono","no",18,"no","white","no","yes",1050,NA,100,"psycho",19,0,19,"C:/Users/etp-cp-ping/Desktop/LocalPC-EXP/subject-23.csv","psycho",0,20,20,"Lentiform Loewenfeld","3.3.8","['hori', 'vert', 'vert', 'hori', 'vert', 'hori', 'hori', 'vert']","no",209,"None","yes",0,NA,2,"legacy",NA,1024,2,48000,-16,"experiment",23,"odd","red","no",5,"circle",352461.3293,352471.9683,352472.010599999,NA,361021.347999998,NA,NA,62305.3899999977,6449.63709999865,NA,62305.4133999976,417789.077999998,421550.3513,NA,NA,NA,NA,6449.69729999866,361800.012699998,NA,NA,417789.092899999,362268.377500001,417789.025499998,"New experiment",19,"[0]","dist_present",56,61,"yes","yes",1680,NA,NA,NA,NA,"NR","NR","lp",NA,"Right",NA,NA,NA,NA,"practice",0,"NR","in"
"21",1114.70170000033,21133.7332000075,21133.7332000075,13,13,"y",7,"['1', '1', '1', '1', '1', '1', '1', '1', '1', '1', '1', '3', '1', '3', '1', '3', '1', '3', '1', '3', '1', '3', '2', '1', '2', '3', '2', '1', '2', '3', '1', '1', '2', 'space']","y","#000000","no",6444.66629999806,1,"neutral","psycho","psycho","psycho",0,"uniform",1,0,0,0,NA,0,0,NA,0,0,0,0,20,20,NA,NA,NA,NA,0,0,0,NA,20,0,20,73.2296414732588,"Mon Nov  1 15:03:21 2021","The main experiment item","yes","red","no","None","circle",NA,"pinging_target_expectations 5.0.osexp","C:\Users\etp-cp-ping\Desktop\LocalPC-EXP",75,"no","mono","no",18,"no","white","no","yes",1050,NA,100,"psycho",20,0,20,"C:/Users/etp-cp-ping/Desktop/LocalPC-EXP/subject-23.csv","psycho",0,21,21,"Lentiform Loewenfeld","3.3.8","['hori', 'hori', 'vert', 'vert', 'hori', 'hori', 'vert', 'vert']","yes",109,"circles","yes",0,NA,2,"legacy",NA,1024,2,48000,-16,"experiment",23,"odd","green","no",2,"diamond",352461.3293,352471.9683,352472.010599999,NA,361021.347999998,NA,NA,62305.3899999977,6449.63709999865,NA,62305.4133999976,421582.212699999,424638.3494,NA,NA,NA,NA,6449.69729999866,361800.012699998,NA,NA,421582.227399998,362268.377500001,421582.1603,"New experiment",19,"[0]","dist_absent",56,39,"yes","yes",1680,NA,NA,NA,NA,"NR","NR","lp",NA,"Left",NA,"Left",NA,NA,"practice",5,"NR","in"
"22",1011.32339999825,22145.0566000058,22145.0566000058,14,14,"y",7,"['1', '1', '1', '1', '1', '1', '1', '1', '1', '1', '1', '3', '1', '3', '1', '3', '1', '3', '1', '3', '1', '3', '2', '1', '2', '3', '2', '1', '2', '3', '1', '1', '2', 'space']","y","#000000","no",6444.66629999806,1,"neutral","psycho","psycho","psycho",0,"uniform",1,0,0,0,NA,0,0,NA,0,0,0,0,21,21,NA,NA,NA,NA,0,0,0,NA,21,0,21,73.2296414732588,"Mon Nov  1 15:03:21 2021","The main experiment item","yes","green","no","None","diamond",NA,"pinging_target_expectations 5.0.osexp","C:\Users\etp-cp-ping\Desktop\LocalPC-EXP",75,"no","mono","no",18,"no","white","no","yes",1050,NA,100,"psycho",21,0,21,"C:/Users/etp-cp-ping/Desktop/LocalPC-EXP/subject-23.csv","psycho",0,22,22,"Lentiform Loewenfeld","3.3.8","['vert', 'vert', 'hori', 'hori', 'hori', 'hori', 'vert', 'vert']","no",209,"None","yes",0,NA,2,"legacy",NA,1024,2,48000,-16,"experiment",23,"odd","red","no",5,"circle",352461.3293,352471.9683,352472.010599999,NA,361021.347999998,NA,NA,62305.3899999977,6449.63709999865,NA,62305.4133999976,424668.995799999,427742.3495,NA,NA,NA,NA,6449.69729999866,361800.012699998,NA,NA,424669.010499998,362268.377500001,424668.943000001,"New experiment",19,"[0]","dist_absent",56,69,"yes","yes",1680,NA,NA,NA,NA,"NR","R","lp",NA,"Right",NA,NA,NA,NA,"practice",2,"NR","in"
"23",1766.58239999961,23911.6390000054,23911.6390000054,15,15,"y",7,"['1', '1', '1', '1', '1', '1', '1', '1', '1', '1', '1', '3', '1', '3', '1', '3', '1', '3', '1', '3', '1', '3', '2', '1', '2', '3', '2', '1', '2', '3', '1', '1', '2', 'space']","y","#000000","no",6444.66629999806,1,"neutral","psycho","psycho","psycho",0,"uniform",1,0,0,0,NA,0,0,NA,0,0,0,0,22,22,NA,NA,NA,NA,0,0,0,NA,22,0,22,73.2296414732588,"Mon Nov  1 15:03:21 2021","The main experiment item","yes","green","no","2","circle",NA,"pinging_target_expectations 5.0.osexp","C:\Users\etp-cp-ping\Desktop\LocalPC-EXP",75,"no","mono","no",18,"no","white","no","yes",1050,NA,100,"psycho",22,0,22,"C:/Users/etp-cp-ping/Desktop/LocalPC-EXP/subject-23.csv","psycho",0,23,23,"Lentiform Loewenfeld","3.3.8","['hori', 'vert', 'hori', 'vert', 'vert', 'hori', 'hori', 'vert']","yes",109,"diamond","yes",0,NA,2,"legacy",NA,1024,2,48000,-16,"experiment",23,"odd","red","no",3,"diamond",352461.3293,352471.9683,352472.010599999,NA,361021.347999998,NA,NA,62305.3899999977,6449.63709999865,NA,62305.4133999976,427773.2187,431438.330699999,NA,NA,NA,NA,6449.69729999866,361800.012699998,NA,NA,427773.233600001,362268.377500001,427773.166899999,"New experiment",19,"[0]","dist_present",56,43,"yes","yes",1680,NA,NA,NA,NA,"NR","NR","lp",NA,NA,NA,NA,NA,NA,"practice",5,"NR","in"
"24",1299.87869999965,25211.517700005,25211.517700005,16,16,"y",7,"['1', '1', '1', '1', '1', '1', '1', '1', '1', '1', '1', '3', '1', '3', '1', '3', '1', '3', '1', '3', '1', '3', '2', '1', '2', '3', '2', '1', '2', '3', '1', '1', '2', 'space']","y","#000000","no",6444.66629999806,1,"neutral","psycho","psycho","psycho",0,"uniform",1,0,0,0,NA,0,0,NA,0,0,0,0,23,23,NA,NA,NA,NA,0,0,0,NA,23,0,23,73.2296414732588,"Mon Nov  1 15:03:21 2021","The main experiment item","yes","red","no","1","circle",NA,"pinging_target_expectations 5.0.osexp","C:\Users\etp-cp-ping\Desktop\LocalPC-EXP",75,"no","mono","no",18,"no","white","no","yes",1050,NA,100,"psycho",23,0,23,"C:/Users/etp-cp-ping/Desktop/LocalPC-EXP/subject-23.csv","psycho",0,24,24,"Lentiform Loewenfeld","3.3.8","['vert', 'vert', 'hori', 'vert', 'hori', 'vert', 'hori', 'hori']","no",209,"None","yes",0,NA,2,"legacy",NA,1024,2,48000,-16,"experiment",23,"odd","green","no",6,"diamond",352461.3293,352471.9683,352472.010599999,NA,361021.347999998,NA,NA,62305.3899999977,6449.63709999865,NA,62305.4133999976,431471.075699999,434750.283099998,NA,NA,NA,NA,6449.69729999866,361800.012699998,NA,NA,431471.0901,362268.377500001,431471.0237,"New experiment",19,"[0]","dist_present",56,72,"yes","yes",1680,NA,NA,NA,NA,"NR","NR","lp",NA,NA,NA,NA,NA,NA,"practice",3,"NR","in"
"25",1871.75989999739,27083.2776000024,27083.2776000024,17,17,"y",7,"['1', '1', '1', '1', '1', '1', '1', '1', '1', '1', '1', '3', '1', '3', '1', '3', '1', '3', '1', '3', '1', '3', '2', '1', '2', '3', '2', '1', '2', '3', '1', '1', '2', 'space']","y","#000000","no",6444.66629999806,1,"neutral","psycho","psycho","psycho",0,"uniform",1,0,0,0,NA,0,0,NA,0,0,0,0,24,24,NA,NA,NA,NA,0,0,0,NA,24,0,24,73.2296414732588,"Mon Nov  1 15:03:21 2021","The main experiment item","yes","red","no","6","diamond",NA,"pinging_target_expectations 5.0.osexp","C:\Users\etp-cp-ping\Desktop\LocalPC-EXP",75,"no","mono","no",18,"no","white","no","yes",1050,NA,100,"psycho",24,0,24,"C:/Users/etp-cp-ping/Desktop/LocalPC-EXP/subject-23.csv","psycho",0,25,25,"Lentiform Loewenfeld","3.3.8","['vert', 'vert', 'vert', 'hori', 'hori', 'vert', 'hori', 'hori']","no",209,"None","yes",0,NA,2,"legacy",NA,1024,2,48000,-16,"experiment",23,"odd","green","no",3,"circle",352461.3293,352471.9683,352472.010599999,NA,361021.347999998,NA,NA,62305.3899999977,6449.63709999865,NA,62305.4133999976,434781.143199998,438382.3051,NA,NA,NA,NA,6449.69729999866,361800.012699998,NA,NA,434781.157400001,362268.377500001,434781.0914,"New experiment",19,"[0]","dist_present",56,47,"yes","yes",1680,NA,NA,NA,NA,"NR","NR","lp",NA,NA,NA,NA,NA,NA,"practice",6,"NR","in"
"26",1363.61319999926,28446.8908000017,28446.8908000017,18,18,"y",7,"['1', '1', '1', '1', '1', '1', '1', '1', '1', '1', '1', '3', '1', '3', '1', '3', '1', '3', '1', '3', '1', '3', '2', '1', '2', '3', '2', '1', '2', '3', '1', '1', '2', 'space']","y","#000000","no",439031.669199998,1,"neutral","psycho","psycho","psycho",0,"uniform",1,0,0,0,NA,0,0,NA,0,0,0,0,25,25,NA,NA,NA,NA,0,0,0,NA,25,0,25,73.2296414732588,"Mon Nov  1 15:03:21 2021","The main experiment item","yes","green","no","2","diamond",NA,"pinging_target_expectations 5.0.osexp","C:\Users\etp-cp-ping\Desktop\LocalPC-EXP",75,"no","mono","no",18,"no","white","no","yes",1050,NA,100,"psycho",25,0,25,"C:/Users/etp-cp-ping/Desktop/LocalPC-EXP/subject-23.csv","psycho",1,26,26,"Lentiform Loewenfeld","3.3.8","['hori', 'hori', 'vert', 'hori', 'hori', 'vert', 'vert', 'vert']","yes",109,"circles","yes",0,NA,2,"legacy",NA,1024,2,48000,-16,"experiment",23,"odd","red","no",3,"circle",352461.3293,352471.9683,352472.010599999,NA,361021.347999998,NA,NA,62305.3899999977,6449.63709999865,NA,62305.4133999976,438413.185599999,441646.3812,NA,NA,NA,NA,6449.69729999866,361800.012699998,NA,NA,438413.200299998,362268.377500001,438413.133399998,"New experiment",19,"[0]","dist_present",56,43,"yes","yes",1680,NA,NA,NA,NA,"R","NR","lp",NA,NA,NA,NA,NA,NA,"practice",3,"NR","in"
"27",1220.68619999848,29667.5770000002,29667.5770000002,19,19,"y",7,"['1', '1', '1', '1', '1', '1', '1', '1', '1', '1', '1', '3', '1', '3', '1', '3', '1', '3', '1', '3', '1', '3', '2', '1', '2', '3', '2', '1', '2', '3', '1', '1', '2', 'space']","y","#000000","no",439031.669199998,1,"neutral","psycho","psycho","psycho",0,"uniform",1,0,0,0,NA,0,0,NA,0,0,0,0,26,26,NA,NA,NA,NA,0,0,0,NA,26,0,26,73.2296414732588,"Mon Nov  1 15:03:21 2021","The main experiment item","yes","red","no","2","diamond",NA,"pinging_target_expectations 5.0.osexp","C:\Users\etp-cp-ping\Desktop\LocalPC-EXP",75,"no","mono","no",18,"no","white","no","yes",1050,NA,100,"psycho",26,0,26,"C:/Users/etp-cp-ping/Desktop/LocalPC-EXP/subject-23.csv","psycho",1,27,27,"Lentiform Loewenfeld","3.3.8","['vert', 'hori', 'vert', 'hori', 'vert', 'vert', 'hori', 'hori']","yes",109,"diamond","yes",0,NA,2,"legacy",NA,1024,2,48000,-16,"experiment",23,"odd","green","no",7,"circle",352461.3293,352471.9683,352472.010599999,NA,361021.347999998,NA,NA,62305.3899999977,6449.63709999865,NA,62305.4133999976,441678.4983,444718.335400001,NA,NA,NA,NA,6449.69729999866,361800.012699998,NA,NA,441678.512999999,362268.377500001,441678.445400001,"New experiment",19,"[0]","dist_present",56,83,"yes","yes",1680,NA,NA,NA,NA,"NR","R","lp",NA,NA,NA,NA,NA,NA,"practice",3,"R","in"
"28",1004.81159999984,30672.3886,30672.3886,20,20,"y",7,"['1', '1', '1', '1', '1', '1', '1', '1', '1', '1', '1', '3', '1', '3', '1', '3', '1', '3', '1', '3', '1', '3', '2', '1', '2', '3', '2', '1', '2', '3', '1', '1', '2', 'space']","y","#000000","no",439031.669199998,1,"neutral","psycho","psycho","psycho",0,"uniform",1,0,0,0,NA,0,0,NA,0,0,0,0,27,27,NA,NA,NA,NA,0,0,0,NA,27,0,27,73.2296414732588,"Mon Nov  1 15:03:21 2021","The main experiment item","yes","green","no","3","circle",NA,"pinging_target_expectations 5.0.osexp","C:\Users\etp-cp-ping\Desktop\LocalPC-EXP",75,"no","mono","no",18,"no","white","no","yes",1050,NA,100,"psycho",27,0,27,"C:/Users/etp-cp-ping/Desktop/LocalPC-EXP/subject-23.csv","psycho",1,28,28,"Lentiform Loewenfeld","3.3.8","['hori', 'vert', 'hori', 'vert', 'vert', 'hori', 'vert', 'hori']","yes",109,"diamond","yes",0,NA,2,"legacy",NA,1024,2,48000,-16,"experiment",23,"odd","red","no",1,"diamond",352461.3293,352471.9683,352472.010599999,NA,361021.347999998,NA,NA,62305.3899999977,6449.63709999865,NA,62305.4133999976,444749.280699998,447870.2897,NA,NA,NA,NA,6449.69729999866,361800.012699998,NA,NA,444749.2958,362268.377500001,444749.2279,"New experiment",19,"[0]","dist_present",56,24,"yes","yes",1680,NA,NA,NA,NA,"NR","NR","lp",NA,NA,NA,NA,NA,NA,"practice",7,"NR","in"
"29",1509.22419999918,32181.6127999992,32181.6127999992,21,21,"y",7,"['1', '1', '1', '1', '1', '1', '1', '1', '1', '1', '1', '3', '1', '3', '1', '3', '1', '3', '1', '3', '1', '3', '2', '1', '2', '3', '2', '1', '2', '3', '1', '1', '2', 'space']","y","#000000","no",439031.669199998,1,"neutral","psycho","psycho","psycho",0,"uniform",1,0,0,0,NA,0,0,NA,0,0,0,0,28,28,NA,NA,NA,NA,0,0,0,NA,28,0,28,73.2296414732588,"Mon Nov  1 15:03:21 2021","The main experiment item","yes","green","no","7","circle",NA,"pinging_target_expectations 5.0.osexp","C:\Users\etp-cp-ping\Desktop\LocalPC-EXP",75,"no","mono","no",18,"no","white","no","yes",1050,NA,100,"psycho",28,0,28,"C:/Users/etp-cp-ping/Desktop/LocalPC-EXP/subject-23.csv","psycho",1,29,29,"Lentiform Loewenfeld","3.3.8","['vert', 'vert', 'vert', 'hori', 'hori', 'hori', 'hori', 'vert']","no",209,"None","yes",0,NA,2,"legacy",NA,1024,2,48000,-16,"experiment",23,"odd","red","no",1,"diamond",352461.3293,352471.9683,352472.010599999,NA,361021.347999998,NA,NA,62305.3899999977,6449.63709999865,NA,62305.4133999976,447901.105199999,451326.3276,NA,NA,NA,NA,6449.69729999866,361800.012699998,NA,NA,447901.119999999,362268.377500001,447901.0519,"New experiment",19,"[0]","dist_present",56,28,"yes","yes",1680,NA,NA,NA,NA,"R","NR","lp",NA,NA,NA,NA,NA,NA,"practice",1,"NR","in"
"30",1543.2674000003,33724.8801999995,33724.8801999995,22,22,"y",7,"['1', '1', '1', '1', '1', '1', '1', '1', '1', '1', '1', '3', '1', '3', '1', '3', '1', '3', '1', '3', '1', '3', '2', '1', '2', '3', '2', '1', '2', '3', '1', '1', '2', 'space']","y","#000000","no",439031.669199998,1,"neutral","psycho","psycho","psycho",0,"uniform",1,0,0,0,NA,0,0,NA,0,0,0,0,29,29,NA,NA,NA,NA,0,0,0,NA,29,0,29,73.2296414732588,"Mon Nov  1 15:03:21 2021","The main experiment item","yes","red","no","4","circle",NA,"pinging_target_expectations 5.0.osexp","C:\Users\etp-cp-ping\Desktop\LocalPC-EXP",75,"no","mono","no",18,"no","white","no","yes",1050,NA,100,"psycho",29,0,29,"C:/Users/etp-cp-ping/Desktop/LocalPC-EXP/subject-23.csv","psycho",1,30,30,"Lentiform Loewenfeld","3.3.8","['hori', 'vert', 'vert', 'hori', 'vert', 'vert', 'hori', 'hori']","no",209,"None","yes",0,NA,2,"legacy",NA,1024,2,48000,-16,"experiment",23,"odd","green","no",1,"diamond",352461.3293,352471.9683,352472.010599999,NA,361021.347999998,NA,NA,62305.3899999977,6449.63709999865,NA,62305.4133999976,451357.132499998,454638.2892,NA,NA,NA,NA,6449.69729999866,361800.012699998,NA,NA,451357.149,362268.377500001,451357.075699998,"New experiment",19,"[0]","dist_present",56,25,"yes","yes",1680,NA,NA,NA,NA,"R","NR","lp",NA,"Left",NA,NA,NA,NA,"practice",1,"R","in"
"31",1177.49109999929,34902.3712999988,34902.3712999988,23,23,"y",7,"['1', '1', '1', '1', '1', '1', '1', '1', '1', '1', '1', '3', '1', '3', '1', '3', '1', '3', '1', '3', '1', '3', '2', '1', '2', '3', '2', '1', '2', '3', '1', '1', '2', 'space']","y","#000000","no",439031.669199998,1,"neutral","psycho","psycho","psycho",0,"uniform",1,0,0,0,NA,0,0,NA,0,0,0,0,30,30,NA,NA,NA,NA,0,0,0,NA,30,0,30,73.2296414732588,"Mon Nov  1 15:03:21 2021","The main experiment item","yes","red","no","None","diamond",NA,"pinging_target_expectations 5.0.osexp","C:\Users\etp-cp-ping\Desktop\LocalPC-EXP",75,"no","mono","no",18,"no","white","no","yes",1050,NA,100,"psycho",30,0,30,"C:/Users/etp-cp-ping/Desktop/LocalPC-EXP/subject-23.csv","psycho",1,31,31,"Lentiform Loewenfeld","3.3.8","['vert', 'hori', 'hori', 'vert', 'vert', 'hori', 'hori', 'vert']","yes",109,"diamond","yes",0,NA,2,"legacy",NA,1024,2,48000,-16,"experiment",23,"odd","green","no",7,"circle",352461.3293,352471.9683,352472.010599999,NA,361021.347999998,NA,NA,62305.3899999977,6449.63709999865,NA,62305.4133999976,454669.092399999,457790.306499999,NA,NA,NA,NA,6449.69729999866,361800.012699998,NA,NA,454669.107399997,362268.377500001,454669.0399,"New experiment",19,"[0]","dist_absent",56,89,"yes","yes",1680,NA,NA,NA,NA,"NR","NR","lp",NA,"Right",NA,NA,NA,NA,"practice",1,"R","in"
"32",2000.28039999964,36902.6516999984,36902.6516999984,23,23,"y",7,"['1', '1', '1', '1', '1', '1', '1', '1', '1', '1', '1', '3', '1', '3', '1', '3', '1', '3', '1', '3', '1', '3', '2', '1', '2', '3', '2', '1', '2', '3', '1', '1', '2', 'space']","y","#000000","no",439031.669199998,1,"neutral","psycho","psycho","psycho",0,"uniform",0,0,0,0,NA,0,0,NA,0,0,0,0,31,31,NA,NA,NA,NA,0,0,0,NA,31,0,31,73.2296414732588,"Mon Nov  1 15:03:21 2021","The main experiment item","yes","red","no","2","diamond",NA,"pinging_target_expectations 5.0.osexp","C:\Users\etp-cp-ping\Desktop\LocalPC-EXP",75,"no","mono","no",18,"no","white","no","yes",1050,NA,100,"psycho",31,0,31,"C:/Users/etp-cp-ping/Desktop/LocalPC-EXP/subject-23.csv","psycho",1,32,32,"Lentiform Loewenfeld","3.3.8","['hori', 'vert', 'vert', 'hori', 'vert', 'hori', 'hori', 'vert']","yes",109,"diamond","yes",0,NA,2,"legacy",NA,1024,2,48000,-16,"experiment",23,"odd","green","no",1,"circle",352461.3293,352471.9683,352472.010599999,NA,361021.347999998,NA,NA,62305.3899999977,6449.63709999865,NA,62305.4133999976,457821.007399998,461799.382499998,NA,NA,NA,NA,6449.69729999866,361800.012699998,NA,NA,457821.022799999,362268.377500001,457820.954799998,"New experiment",19,"[0]","dist_present",56,23,"yes","yes",1680,NA,NA,NA,NA,"NR","NR","lp",NA,NA,NA,NA,NA,NA,"practice",7,"NR","in"
"33",1306.44620000024,38209.0978999987,38209.0978999987,23,23,"y",7,"['1', '1', '1', '1', '1', '1', '1', '1', '1', '1', '1', '3', '1', '3', '1', '3', '1', '3', '1', '3', '1', '3', '2', '1', '2', '3', '2', '1', '2', '3', '1', '1', '2', 'space']","y","#000000","no",439031.669199998,1,"neutral","psycho","psycho","psycho",0,"uniform",0,0,0,0,NA,0,0,NA,0,0,0,0,32,32,NA,NA,NA,NA,0,0,0,NA,32,0,32,73.2296414732588,"Mon Nov  1 15:03:21 2021","The main experiment item","yes","red","no","None","circle",NA,"pinging_target_expectations 5.0.osexp","C:\Users\etp-cp-ping\Desktop\LocalPC-EXP",75,"no","mono","no",18,"no","white","no","yes",1050,NA,100,"psycho",32,0,32,"C:/Users/etp-cp-ping/Desktop/LocalPC-EXP/subject-23.csv","psycho",1,33,33,"Lentiform Loewenfeld","3.3.8","['vert', 'hori', 'hori', 'vert', 'hori', 'vert', 'vert', 'hori']","yes",109,"circles","yes",0,NA,2,"legacy",NA,1024,2,48000,-16,"experiment",23,"odd","green","no",3,"diamond",352461.3293,352471.9683,352472.010599999,NA,361021.347999998,NA,NA,62305.3899999977,6449.63709999865,NA,62305.4133999976,461830.415199998,464926.246899999,NA,NA,NA,NA,6449.69729999866,361800.012699998,NA,NA,461830.4297,362268.377500001,461830.363699999,"New experiment",19,"[0]","dist_absent",56,49,"yes","yes",1680,NA,NA,NA,NA,"NR","NR","lp",NA,"Left",NA,NA,NA,NA,"practice",1,"NR","in"
"34",1206.58170000021,39415.6795999989,39415.6795999989,23,23,"y",7,"['1', '1', '1', '1', '1', '1', '1', '1', '1', '1', '1', '3', '1', '3', '1', '3', '1', '3', '1', '3', '1', '3', '2', '1', '2', '3', '2', '1', '2', '3', '1', '1', '2', 'space']","y","#000000","no",439031.669199998,1,"neutral","psycho","psycho","psycho",0,"uniform",0,0,0,0,NA,0,0,NA,0,0,0,0,33,33,NA,NA,NA,NA,0,0,0,NA,33,0,33,73.2296414732588,"Mon Nov  1 15:03:21 2021","The main experiment item","yes","green","no","6","diamond",NA,"pinging_target_expectations 5.0.osexp","C:\Users\etp-cp-ping\Desktop\LocalPC-EXP",75,"no","mono","no",18,"no","white","no","yes",1050,NA,100,"psycho",33,0,33,"C:/Users/etp-cp-ping/Desktop/LocalPC-EXP/subject-23.csv","psycho",1,34,34,"Lentiform Loewenfeld","3.3.8","['vert', 'vert', 'vert', 'hori', 'hori', 'hori', 'vert', 'hori']","no",209,"None","yes",0,NA,2,"legacy",NA,1024,2,48000,-16,"experiment",23,"odd","red","no",0,"circle",352461.3293,352471.9683,352472.010599999,NA,361021.347999998,NA,NA,62305.3899999977,6449.63709999865,NA,62305.4133999976,464957.1517,468142.276999999,NA,NA,NA,NA,6449.69729999866,361800.012699998,NA,NA,464957.1665,362268.377500001,464957.100299998,"New experiment",19,"[0]","dist_present",56,17,"yes","yes",1680,NA,NA,NA,NA,"NR","NR","lp","Right",NA,"Right",NA,NA,NA,"practice",3,"NR","in"
"35",1003.61239999987,40419.2919999987,40419.2919999987,24,24,"y",7,"['1', '1', '1', '1', '1', '1', '1', '1', '1', '1', '1', '3', '1', '3', '1', '3', '1', '3', '1', '3', '1', '3', '2', '1', '2', '3', '2', '1', '2', '3', '1', '1', '2', 'space']","y","#000000","no",439031.669199998,1,"neutral","psycho","psycho","psycho",0,"uniform",1,0,0,0,NA,0,0,NA,0,0,0,0,34,34,NA,NA,NA,NA,0,0,0,NA,34,0,34,73.2296414732588,"Mon Nov  1 15:03:21 2021","The main experiment item","yes","green","no","2","diamond",NA,"pinging_target_expectations 5.0.osexp","C:\Users\etp-cp-ping\Desktop\LocalPC-EXP",75,"no","mono","no",18,"no","white","no","yes",1050,NA,100,"psycho",34,0,34,"C:/Users/etp-cp-ping/Desktop/LocalPC-EXP/subject-23.csv","psycho",1,35,35,"Lentiform Loewenfeld","3.3.8","['vert', 'vert', 'hori', 'hori', 'hori', 'vert', 'hori', 'vert']","no",209,"None","yes",0,NA,2,"legacy",NA,1024,2,48000,-16,"experiment",23,"odd","red","no",0,"circle",352461.3293,352471.9683,352472.010599999,NA,361021.347999998,NA,NA,62305.3899999977,6449.63709999865,NA,62305.4133999976,468173.075899998,471150.275799999,NA,NA,NA,NA,6449.69729999866,361800.012699998,NA,NA,468173.090599998,362268.377500001,468173.023799998,"New experiment",19,"[0]","dist_present",56,13,"yes","yes",1680,NA,NA,NA,NA,"R","NR","lp","Left",NA,"Left",NA,NA,NA,"practice",0,"NR","in"
"36",1087.12249999738,41506.4144999961,41506.4144999961,25,25,"y",7,"['1', '1', '1', '1', '1', '1', '1', '1', '1', '1', '1', '3', '1', '3', '1', '3', '1', '3', '1', '3', '1', '3', '2', '1', '2', '3', '2', '1', '2', '3', '1', '1', '2', 'space']","y","#000000","no",439031.669199998,1,"neutral","psycho","psycho","psycho",0,"uniform",1,0,0,0,NA,0,0,NA,0,0,0,0,35,35,NA,NA,NA,NA,0,0,0,NA,35,0,35,73.2296414732588,"Mon Nov  1 15:03:21 2021","The main experiment item","yes","red","no","1","circle",NA,"pinging_target_expectations 5.0.osexp","C:\Users\etp-cp-ping\Desktop\LocalPC-EXP",75,"no","mono","no",18,"no","white","no","yes",1050,NA,100,"psycho",35,0,35,"C:/Users/etp-cp-ping/Desktop/LocalPC-EXP/subject-23.csv","psycho",1,36,36,"Lentiform Loewenfeld","3.3.8","['vert', 'vert', 'vert', 'vert', 'hori', 'hori', 'hori', 'hori']","yes",109,"diamond","yes",0,NA,2,"legacy",NA,1024,2,48000,-16,"experiment",23,"odd","green","no",2,"diamond",352461.3293,352471.9683,352472.010599999,NA,361021.347999998,NA,NA,62305.3899999977,6449.63709999865,NA,62305.4133999976,471182.477899998,474366.232799999,NA,NA,NA,NA,6449.69729999866,361800.012699998,NA,NA,471182.493,362268.377500001,471182.426699997,"New experiment",19,"[0, 73.59189949240086]","dist_present",56,32,"yes","yes",1680,NA,NA,NA,NA,"NR","NR","lp",NA,NA,NA,NA,NA,NA,"practice",0,"R","in"
"37",1542.46530000097,43048.8797999971,43048.8797999971,26,26,"y",7,"['1', '1', '1', '1', '1', '1', '1', '1', '1', '1', '1', '3', '1', '3', '1', '3', '1', '3', '1', '3', '1', '3', '2', '1', '2', '3', '2', '1', '2', '3', '1', '1', '2', 'space']","y","#000000","no",439031.669199998,1,"neutral","psycho","psycho","psycho",0,"uniform",1,0,0,0,NA,0,0,NA,0,0,0,0,36,36,NA,NA,NA,NA,0,0,0,NA,36,0,36,73.2296414732588,"Mon Nov  1 15:03:21 2021","The main experiment item","yes","red","no","4","circle",NA,"pinging_target_expectations 5.0.osexp","C:\Users\etp-cp-ping\Desktop\LocalPC-EXP",75,"no","mono","no",18,"no","white","no","yes",1050,NA,100,"psycho",36,0,36,"C:/Users/etp-cp-ping/Desktop/LocalPC-EXP/subject-23.csv","psycho",1,37,37,"Lentiform Loewenfeld","3.3.8","['vert', 'hori', 'hori', 'vert', 'vert', 'hori', 'hori', 'vert']","yes",109,"circles","yes",0,NA,2,"legacy",NA,1024,2,48000,-16,"experiment",23,"odd","green","no",5,"diamond",352461.3293,352471.9683,352472.010599999,NA,361021.347999998,NA,NA,62305.3899999977,6449.63709999865,NA,62305.4133999976,474397.168299998,477982.236199998,NA,NA,NA,NA,6449.69729999866,361800.012699998,NA,NA,474397.1834,362268.377500001,474397.115600001,"New experiment",19,"[0, 306.475851374274, 291.7852988583959, 277.12644008456874, 264.16370416402214, 249.3046476577426, 236.19998327605904, 224.750104521494, 212.46459625802763, 200.31597540496404, 188.56979927660566, 175.24693941107608, 164.5994460253045, 152.4386311987169, 140.14368754667575, 131.12014926196971, 119.90506995445372, 112.07872279134524, 102.9408818983829, 97.43355364292646, 86.77892720604207, 79.75275598625473]","dist_present",56,65,"yes","yes",1680,NA,NA,NA,NA,"NR","NR","lp",NA,"Right",NA,NA,NA,NA,"practice",2,"NR","in"
"38",2000.50970000302,45049.3895000001,45049.3895000001,26,26,"y",7,"['1', '1', '1', '1', '1', '1', '1', '1', '1', '1', '1', '3', '1', '3', '1', '3', '1', '3', '1', '3', '1', '3', '2', '1', '2', '3', '2', '1', '2', '3', '1', '1', '2', 'space']","y","#000000","no",439031.669199998,1,"neutral","psycho","psycho","psycho",0,"uniform",0,0,0,0,NA,0,0,NA,0,0,0,0,37,37,NA,NA,NA,NA,0,0,0,NA,37,0,37,73.2296414732588,"Mon Nov  1 15:03:21 2021","The main experiment item","yes","red","no","1","diamond",NA,"pinging_target_expectations 5.0.osexp","C:\Users\etp-cp-ping\Desktop\LocalPC-EXP",75,"no","mono","no",18,"no","white","no","yes",1050,NA,100,"psycho",37,0,37,"C:/Users/etp-cp-ping/Desktop/LocalPC-EXP/subject-23.csv","psycho",1,38,38,"Lentiform Loewenfeld","3.3.8","['vert', 'hori', 'vert', 'hori', 'vert', 'vert', 'hori', 'hori']","no",209,"None","yes",0,NA,2,"legacy",NA,1024,2,48000,-16,"experiment",23,"odd","green","no",4,"circle",352461.3293,352471.9683,352472.010599999,NA,361021.347999998,NA,NA,62305.3899999977,6449.63709999865,NA,62305.4133999976,478014.990199998,481922.472300001,NA,NA,NA,NA,6449.69729999866,361800.012699998,NA,NA,478015.005199999,362268.377500001,478014.938099997,"New experiment",19,"[0, 79.23698631321108, 78.98159051719045, 78.89649373472442, 78.86417417782675, 79.8677053257739, 80.23276311368201, 80.14767376147448, 79.9453209744252, 79.87247364329612, 79.68252213313055, 79.02285774318108, 78.99122271874363, 77.07301463522549, 75.76820744723223, 77.67059550596476, 77.09115721661492, 74.03042645107543, 73.35013064091441]","dist_present",56,52,"yes","yes",1680,NA,NA,NA,NA,"NR","NR","lp","Left",NA,NA,NA,NA,NA,"practice",5,"NR","in"
"39",2000.35199999908,47049.7414999992,47049.7414999992,26,26,"y",7,"['1', '1', '1', '1', '1', '1', '1', '1', '1', '1', '1', '3', '1', '3', '1', '3', '1', '3', '1', '3', '1', '3', '2', '1', '2', '3', '2', '1', '2', '3', '1', '1', '2', 'space']","y","#000000","no",439031.669199998,1,"neutral","psycho","psycho","psycho",0,"uniform",0,0,0,0,NA,0,0,NA,0,0,0,0,38,38,NA,NA,NA,NA,0,0,0,NA,38,0,38,73.2296414732588,"Mon Nov  1 15:03:21 2021","The main experiment item","yes","red","no","7","diamond",NA,"pinging_target_expectations 5.0.osexp","C:\Users\etp-cp-ping\Desktop\LocalPC-EXP",75,"no","mono","no",18,"no","white","no","yes",1050,NA,100,"psycho",38,0,38,"C:/Users/etp-cp-ping/Desktop/LocalPC-EXP/subject-23.csv","psycho",1,39,39,"Lentiform Loewenfeld","3.3.8","['vert', 'hori', 'vert', 'hori', 'vert', 'vert', 'hori', 'hori']","no",209,"None","yes",0,NA,2,"legacy",NA,1024,2,48000,-16,"experiment",23,"odd","green","no",3,"circle",352461.3293,352471.9683,352472.010599999,NA,361021.347999998,NA,NA,62305.3899999977,6449.63709999865,NA,62305.4133999976,481953.0423,485659.937599998,NA,NA,NA,NA,6449.69729999866,361800.012699998,NA,NA,481953.0571,362268.377500001,481952.990499998,"New experiment",19,"[0]","dist_present",56,48,"yes","yes",1680,NA,NA,NA,NA,"NR","NR","lp",NA,NA,NA,NA,NA,NA,"practice",4,"NR","in"
"40",1186.09189999913,48235.8333999983,48235.8333999983,27,27,"y",7,"['1', '1', '1', '1', '1', '1', '1', '1', '1', '1', '1', '3', '1', '3', '1', '3', '1', '3', '1', '3', '1', '3', '2', '1', '2', '3', '2', '1', '2', '3', '1', '1', '2', 'space']","y","#000000","no",439031.669199998,1,"neutral","psycho","psycho","psycho",0,"uniform",1,0,0,0,NA,0,0,NA,0,0,0,0,39,39,NA,NA,NA,NA,0,0,0,NA,39,0,39,73.2296414732588,"Mon Nov  1 15:03:21 2021","The main experiment item","yes","green","no","None","diamond",NA,"pinging_target_expectations 5.0.osexp","C:\Users\etp-cp-ping\Desktop\LocalPC-EXP",75,"no","mono","no",18,"no","white","no","yes",1050,NA,100,"psycho",39,0,39,"C:/Users/etp-cp-ping/Desktop/LocalPC-EXP/subject-23.csv","psycho",1,40,40,"Lentiform Loewenfeld","3.3.8","['hori', 'vert', 'hori', 'vert', 'vert', 'hori', 'hori', 'vert']","yes",109,"diamond","yes",0,NA,2,"legacy",NA,1024,2,48000,-16,"experiment",23,"odd","red","no",4,"circle",352461.3293,352471.9683,352472.010599999,NA,361021.347999998,NA,NA,62305.3899999977,6449.63709999865,NA,62305.4133999976,485692.346100001,488750.326199999,NA,NA,NA,NA,6449.69729999866,361800.012699998,NA,NA,485692.3608,362268.377500001,485692.294799999,"New experiment",19,"[0]","dist_absent",56,59,"yes","yes",1680,NA,NA,NA,NA,"NR","NR","lp",NA,NA,NA,NA,NA,NA,"practice",3,"NR","in"
"41",1614.19630000094,49850.0296999993,49850.0296999993,28,28,"y",7,"['1', '1', '1', '1', '1', '1', '1', '1', '1', '1', '1', '3', '1', '3', '1', '3', '1', '3', '1', '3', '1', '3', '2', '1', '2', '3', '2', '1', '2', '3', '1', '1', '2', 'space']","y","#000000","no",489216.333699998,1,"neutral","psycho","psycho","psycho",0,"uniform",1,0,0,0,NA,0,0,NA,0,0,0,0,40,40,NA,NA,NA,NA,0,0,0,NA,40,0,40,73.2296414732588,"Mon Nov  1 15:03:21 2021","The main experiment item","yes","green","no","7","diamond",NA,"pinging_target_expectations 5.0.osexp","C:\Users\etp-cp-ping\Desktop\LocalPC-EXP",75,"no","mono","no",18,"no","white","no","yes",1050,NA,100,"psycho",40,0,40,"C:/Users/etp-cp-ping/Desktop/LocalPC-EXP/subject-23.csv","psycho",2,41,41,"Lentiform Loewenfeld","3.3.8","['vert', 'hori', 'hori', 'vert', 'hori', 'vert', 'vert', 'hori']","yes",109,"circles","yes",0,NA,2,"legacy",NA,1024,2,48000,-16,"experiment",23,"odd","red","no",2,"circle",352461.3293,352471.9683,352472.010599999,NA,361021.347999998,NA,NA,62305.3899999977,6449.63709999865,NA,62305.4133999976,488781.362399997,492366.234699999,NA,NA,NA,NA,6449.69729999866,361800.012699998,NA,NA,488781.377399999,362268.377500001,488781.3102,"New experiment",19,"[0]","dist_present",56,38,"yes","no",1680,NA,NA,NA,NA,"NR","NR","lp",NA,NA,NA,NA,NA,NA,"practice",4,"NR","in"
"42",1323.68020000285,51173.7099000021,51173.7099000021,29,29,"y",7,"['1', '1', '1', '1', '1', '1', '1', '1', '1', '1', '1', '3', '1', '3', '1', '3', '1', '3', '1', '3', '1', '3', '2', '1', '2', '3', '2', '1', '2', '3', '1', '1', '2', 'space']","y","#000000","no",489216.333699998,1,"neutral","psycho","psycho","psycho",0,"uniform",1,0,0,0,NA,0,0,NA,0,0,0,0,41,41,NA,NA,NA,NA,0,0,0,NA,41,0,41,73.2296414732588,"Mon Nov  1 15:03:21 2021","The main experiment item","yes","red","no","4","diamond",NA,"pinging_target_expectations 5.0.osexp","C:\Users\etp-cp-ping\Desktop\LocalPC-EXP",75,"no","mono","no",18,"no","white","no","yes",1050,NA,100,"psycho",41,0,41,"C:/Users/etp-cp-ping/Desktop/LocalPC-EXP/subject-23.csv","psycho",2,42,42,"Lentiform Loewenfeld","3.3.8","['hori', 'vert', 'vert', 'hori', 'hori', 'vert', 'vert', 'hori']","yes",109,"diamond","yes",0,NA,2,"legacy",NA,1024,2,48000,-16,"experiment",23,"odd","green","no",6,"circle",352461.3293,352471.9683,352472.010599999,NA,361021.347999998,NA,NA,62305.3899999977,6449.63709999865,NA,62305.4133999976,492397.376699999,495614.295899999,NA,NA,NA,NA,6449.69729999866,361800.012699998,NA,NA,492397.3912,362268.377500001,492397.321599998,"New experiment",19,"[0]","dist_present",56,75,"yes","yes",1680,NA,NA,NA,NA,"NR","NR","lp",NA,"Right",NA,"Right",NA,NA,"practice",2,"NR","in"
"43",961.446600002062,52135.1565000042,52135.1565000042,30,30,"y",7,"['1', '1', '1', '1', '1', '1', '1', '1', '1', '1', '1', '3', '1', '3', '1', '3', '1', '3', '1', '3', '1', '3', '2', '1', '2', '3', '2', '1', '2', '3', '1', '1', '2', 'space']","y","#000000","no",489216.333699998,1,"neutral","psycho","psycho","psycho",0,"uniform",1,0,0,0,NA,0,0,NA,0,0,0,0,42,42,NA,NA,NA,NA,0,0,0,NA,42,0,42,73.2296414732588,"Mon Nov  1 15:03:21 2021","The main experiment item","yes","red","no","3","circle",NA,"pinging_target_expectations 5.0.osexp","C:\Users\etp-cp-ping\Desktop\LocalPC-EXP",75,"no","mono","no",18,"no","white","no","yes",1050,NA,100,"psycho",42,0,42,"C:/Users/etp-cp-ping/Desktop/LocalPC-EXP/subject-23.csv","psycho",2,43,43,"Lentiform Loewenfeld","3.3.8","['hori', 'vert', 'vert', 'hori', 'hori', 'vert', 'vert', 'hori']","yes",109,"circles","yes",0,NA,2,"legacy",NA,1024,2,48000,-16,"experiment",23,"odd","green","no",4,"diamond",352461.3293,352471.9683,352472.010599999,NA,361021.347999998,NA,NA,62305.3899999977,6449.63709999865,NA,62305.4133999976,495645.270999998,498702.229299997,NA,NA,NA,NA,6449.69729999866,361800.012699998,NA,NA,495645.285299997,362268.377500001,495645.218999998,"New experiment",19,"[0]","dist_present",56,54,"yes","yes",1680,NA,NA,NA,NA,"NR","NR","lp","Left",NA,NA,NA,NA,NA,"practice",6,"NR","in"
"44",1325.18530000019,53460.3418000044,53460.3418000044,30,30,"y",7,"['1', '1', '1', '1', '1', '1', '1', '1', '1', '1', '1', '3', '1', '3', '1', '3', '1', '3', '1', '3', '1', '3', '2', '1', '2', '3', '2', '1', '2', '3', '1', '1', '2', 'space']","y","#000000","no",489216.333699998,1,"neutral","psycho","psycho","psycho",0,"uniform",0,0,0,0,NA,0,0,NA,0,0,0,0,43,43,NA,NA,NA,NA,0,0,0,NA,43,0,43,73.2296414732588,"Mon Nov  1 15:03:21 2021","The main experiment item","yes","green","no","6","circle",NA,"pinging_target_expectations 5.0.osexp","C:\Users\etp-cp-ping\Desktop\LocalPC-EXP",75,"no","mono","no",18,"no","white","no","yes",1050,NA,100,"psycho",43,0,43,"C:/Users/etp-cp-ping/Desktop/LocalPC-EXP/subject-23.csv","psycho",2,44,44,"Lentiform Loewenfeld","3.3.8","['vert', 'hori', 'hori', 'vert', 'vert', 'hori', 'vert', 'hori']","yes",109,"diamond","yes",0,NA,2,"legacy",NA,1024,2,48000,-16,"experiment",23,"odd","red","no",1,"diamond",352461.3293,352471.9683,352472.010599999,NA,361021.347999998,NA,NA,62305.3899999977,6449.63709999865,NA,62305.4133999976,498733.149899999,502014.238199998,NA,NA,NA,NA,6449.69729999866,361800.012699998,NA,NA,498733.164699999,362268.377500001,498733.096299999,"New experiment",19,"[0]","dist_present",56,27,"yes","yes",1680,NA,NA,NA,NA,"NR","NR","lp",NA,NA,NA,NA,NA,NA,"practice",4,"NR","in"
"45",1596.62630000093,55056.9681000053,55056.9681000053,31,31,"y",7,"['1', '1', '1', '1', '1', '1', '1', '1', '1', '1', '1', '3', '1', '3', '1', '3', '1', '3', '1', '3', '1', '3', '2', '1', '2', '3', '2', '1', '2', '3', '1', '1', '2', 'space']","y","#000000","no",489216.333699998,1,"neutral","psycho","psycho","psycho",0,"uniform",1,0,0,0,NA,0,0,NA,0,0,0,0,44,44,NA,NA,NA,NA,0,0,0,NA,44,0,44,73.2296414732588,"Mon Nov  1 15:03:21 2021","The main experiment item","yes","green","no","4","circle",NA,"pinging_target_expectations 5.0.osexp","C:\Users\etp-cp-ping\Desktop\LocalPC-EXP",75,"no","mono","no",18,"no","white","no","yes",1050,NA,100,"psycho",44,0,44,"C:/Users/etp-cp-ping/Desktop/LocalPC-EXP/subject-23.csv","psycho",2,45,45,"Lentiform Loewenfeld","3.3.8","['hori', 'hori', 'vert', 'vert', 'vert', 'hori', 'vert', 'hori']","yes",109,"circles","yes",0,NA,2,"legacy",NA,1024,2,48000,-16,"experiment",23,"odd","red","no",6,"diamond",352461.3293,352471.9683,352472.010599999,NA,361021.347999998,NA,NA,62305.3899999977,6449.63709999865,NA,62305.4133999976,502045.0575,505278.310199999,NA,NA,NA,NA,6449.69729999866,361800.012699998,NA,NA,502045.072299999,362268.377500001,502045.005,"New experiment",19,"[0]","dist_present",56,75,"yes","yes",1680,NA,NA,NA,NA,"NR","NR","lp",NA,"Right",NA,"Right",NA,NA,"practice",1,"NR","in"
"46",1055.86380000022,56112.8319000055,56112.8319000055,32,32,"y",7,"['1', '1', '1', '1', '1', '1', '1', '1', '1', '1', '1', '3', '1', '3', '1', '3', '1', '3', '1', '3', '1', '3', '2', '1', '2', '3', '2', '1', '2', '3', '1', '1', '2', 'space']","y","#000000","no",489216.333699998,1,"neutral","psycho","psycho","psycho",0,"uniform",1,0,0,0,NA,0,0,NA,0,0,0,0,45,45,NA,NA,NA,NA,0,0,0,NA,45,0,45,73.2296414732588,"Mon Nov  1 15:03:21 2021","The main experiment item","yes","green","no","None","circle",NA,"pinging_target_expectations 5.0.osexp","C:\Users\etp-cp-ping\Desktop\LocalPC-EXP",75,"no","mono","no",18,"no","white","no","yes",1050,NA,100,"psycho",45,0,45,"C:/Users/etp-cp-ping/Desktop/LocalPC-EXP/subject-23.csv","psycho",2,46,46,"Lentiform Loewenfeld","3.3.8","['hori', 'hori', 'hori', 'vert', 'vert', 'hori', 'vert', 'vert']","no",209,"None","yes",0,NA,2,"legacy",NA,1024,2,48000,-16,"experiment",23,"odd","red","no",2,"diamond",352461.3293,352471.9683,352472.010599999,NA,361021.347999998,NA,NA,62305.3899999977,6449.63709999865,NA,62305.4133999976,505309.328899999,508174.234399998,NA,NA,NA,NA,6449.69729999866,361800.012699998,NA,NA,505309.3438,362268.377500001,505309.277,"New experiment",19,"[0, 73.49831972861986, 73.81658575496215, 73.46108492620739, 73.94400112744486, 73.3869902761901, 73.36822206038201, 73.8474768784238, 73.93865548812622, 73.81579655663315, 73.64305681389982, 73.3387024586712, 73.51109380961648, 74.04383353573826, 73.70487470098634, 73.99841369579066, 74.17129440077365, 73.69234279570263, 73.61549217710028, 73.32187215310246, 73.68921380998944, 73.31609446112084, 74.58470095929727, 74.30061228770879]","dist_absent",56,39,"yes","yes",1680,NA,NA,NA,NA,"NR","NR","lp",NA,"Left",NA,"Left",NA,NA,"practice",6,"NR","in"
"47",1275.07559999864,57387.9075000042,57387.9075000042,33,33,"y",7,"['1', '1', '1', '1', '1', '1', '1', '1', '1', '1', '1', '3', '1', '3', '1', '3', '1', '3', '1', '3', '1', '3', '2', '1', '2', '3', '2', '1', '2', '3', '1', '1', '2', 'space']","y","#000000","no",489216.333699998,1,"neutral","psycho","psycho","psycho",0,"uniform",1,0,0,0,NA,0,0,NA,0,0,0,0,46,46,NA,NA,NA,NA,0,0,0,NA,46,0,46,73.2296414732588,"Mon Nov  1 15:03:21 2021","The main experiment item","yes","red","no","None","circle",NA,"pinging_target_expectations 5.0.osexp","C:\Users\etp-cp-ping\Desktop\LocalPC-EXP",75,"no","mono","no",18,"no","white","no","yes",1050,NA,100,"psycho",46,0,46,"C:/Users/etp-cp-ping/Desktop/LocalPC-EXP/subject-23.csv","psycho",2,47,47,"Lentiform Loewenfeld","3.3.8","['hori', 'hori', 'vert', 'hori', 'vert', 'hori', 'vert', 'vert']","no",209,"None","yes",0,NA,2,"legacy",NA,1024,2,48000,-16,"experiment",23,"odd","green","no",2,"diamond",352461.3293,352471.9683,352472.010599999,NA,361021.347999998,NA,NA,62305.3899999977,6449.63709999865,NA,62305.4133999976,508204.9659,511310.2444,NA,NA,NA,NA,6449.69729999866,361800.012699998,NA,NA,508204.980499999,362268.377500001,508204.912599998,"New experiment",19,"[0]","dist_absent",56,39,"yes","yes",1680,NA,NA,NA,NA,"R","R","lp",NA,"Left",NA,"Left",NA,NA,"practice",2,"NR","in"
"48",1694.51050000131,59082.4180000055,59082.4180000055,34,34,"y",7,"['1', '1', '1', '1', '1', '1', '1', '1', '1', '1', '1', '3', '1', '3', '1', '3', '1', '3', '1', '3', '1', '3', '2', '1', '2', '3', '2', '1', '2', '3', '1', '1', '2', 'space']","y","#000000","no",489216.333699998,1,"neutral","psycho","psycho","psycho",0,"uniform",1,0,0,0,NA,0,0,NA,0,0,0,0,47,47,NA,NA,NA,NA,0,0,0,NA,47,0,47,73.2296414732588,"Mon Nov  1 15:03:21 2021","The main experiment item","yes","red","no","0","circle",NA,"pinging_target_expectations 5.0.osexp","C:\Users\etp-cp-ping\Desktop\LocalPC-EXP",75,"no","mono","no",18,"no","white","no","yes",1050,NA,100,"psycho",47,0,47,"C:/Users/etp-cp-ping/Desktop/LocalPC-EXP/subject-23.csv","psycho",2,48,48,"Lentiform Loewenfeld","3.3.8","['hori', 'vert', 'vert', 'vert', 'hori', 'hori', 'vert', 'hori']","yes",109,"circles","yes",0,NA,2,"legacy",NA,1024,2,48000,-16,"experiment",23,"odd","green","no",5,"diamond",352461.3293,352471.9683,352472.010599999,NA,361021.347999998,NA,NA,62305.3899999977,6449.63709999865,NA,62305.4133999976,511342.553899998,514862.298100001,NA,NA,NA,NA,6449.69729999866,361800.012699998,NA,NA,511342.5689,362268.377500001,511342.501899999,"New experiment",19,"[0, 74.81933149743423, 75.02191876977412, 73.8887046595735, 74.53122223860046, 73.92563831310488, 73.71637549496059, 75.04091756556672, 75.07870128551336, 74.36159863178685, 74.26937929378259, 74.07759910038062, 75.19269047376709, 75.11657606680433, 75.4384860708727, 75.60807487516412, 75.93844408492846, 75.6616085527486, 75.42373157480421, 74.0599596083322, 74.11142989126635, 74.45545785957748, 75.17664251991242, 75.08515790421099, 74.99363913456445, 75.32929832432997, 75.61911222884126, 75.36177686407162, 74.73285756613352, 74.82383761078607, 74.70004969420805, 74.65899263092996, 76.36815984036207, 76.197168781222, 73.7976398038931, 74.09648005765013, 74.3274391325909, 74.0898116012331, 74.78134794184977, 74.38581854090201, 75.42048679969062, 75.40322198839526, 74.03546447480423, 73.69141588673553, 73.9638638080435, 74.28590678766983, 74.41078672252603, 74.82383761078607, 74.92464973029755, 74.26472843912825, 74.2445112363952, 74.3356065579884, 74.25322654829337, 74.85135151899358, 75.57014902934327, 75.38868690838352, 75.30480290024234, 75.51531857738763, 75.96850244843851, 75.78714717711864, 75.56362588982734, 74.67615135079407, 73.72446600150981, 73.3387024586712, 73.67416357129537, 73.31857381729516]","dist_present",56,61,"yes","yes",1680,NA,NA,NA,NA,"NR","NR","lp",NA,"Right",NA,NA,NA,NA,"practice",2,"R","in"
"49",1685.46229999996,60767.8803000054,60767.8803000054,35,35,"y",7,"['1', '1', '1', '1', '1', '1', '1', '1', '1', '1', '1', '3', '1', '3', '1', '3', '1', '3', '1', '3', '1', '3', '2', '1', '2', '3', '2', '1', '2', '3', '1', '1', '2', 'space']","y","#000000","no",489216.333699998,1,"neutral","psycho","psycho","psycho",0,"uniform",1,0,0,0,NA,0,0,NA,0,0,0,0,48,48,NA,NA,NA,NA,0,0,0,NA,48,0,48,73.2296414732588,"Mon Nov  1 15:03:21 2021","The main experiment item","yes","green","no","None","circle",NA,"pinging_target_expectations 5.0.osexp","C:\Users\etp-cp-ping\Desktop\LocalPC-EXP",75,"no","mono","no",18,"no","white","no","yes",1050,NA,100,"psycho",48,0,48,"C:/Users/etp-cp-ping/Desktop/LocalPC-EXP/subject-23.csv","psycho",2,49,49,"Lentiform Loewenfeld","3.3.8","['vert', 'hori', 'hori', 'vert', 'hori', 'vert', 'vert', 'hori']","no",209,"None","yes",0,NA,2,"legacy",NA,1024,2,48000,-16,"experiment",23,"odd","red","no",7,"diamond",352461.3293,352471.9683,352472.010599999,NA,361021.347999998,NA,NA,62305.3899999977,6449.63709999865,NA,62305.4133999976,514893.161399999,518414.180299998,NA,NA,NA,NA,6449.69729999866,361800.012699998,NA,NA,514893.176899997,362268.377500001,514893.090599999,"New experiment",19,"[0]","dist_absent",56,89,"yes","yes",1680,NA,NA,NA,NA,"NR","NR","lp",NA,"Right",NA,NA,NA,NA,"practice",5,"NR","in"
"50",2000.34450000018,62768.2248000056,62768.2248000056,35,35,"y",7,"['1', '1', '1', '1', '1', '1', '1', '1', '1', '1', '1', '3', '1', '3', '1', '3', '1', '3', '1', '3', '1', '3', '2', '1', '2', '3', '2', '1', '2', '3', '1', '1', '2', 'space']","y","#000000","no",489216.333699998,1,"neutral","psycho","psycho","psycho",0,"uniform",0,0,0,0,NA,0,0,NA,0,0,0,0,49,49,NA,NA,NA,NA,0,0,0,NA,49,0,49,73.2296414732588,"Mon Nov  1 15:03:21 2021","The main experiment item","yes","red","no","6","diamond",NA,"pinging_target_expectations 5.0.osexp","C:\Users\etp-cp-ping\Desktop\LocalPC-EXP",75,"no","mono","no",18,"no","white","no","yes",1050,NA,100,"psycho",49,0,49,"C:/Users/etp-cp-ping/Desktop/LocalPC-EXP/subject-23.csv","psycho",2,50,50,"Lentiform Loewenfeld","3.3.8","['vert', 'hori', 'vert', 'hori', 'hori', 'vert', 'vert', 'hori']","no",209,"None","yes",0,NA,2,"legacy",NA,1024,2,48000,-16,"experiment",23,"odd","green","no",7,"circle",352461.3293,352471.9683,352472.010599999,NA,361021.347999998,NA,NA,62305.3899999977,6449.63709999865,NA,62305.4133999976,518445.2145,522497.047199999,NA,NA,NA,NA,6449.69729999866,361800.012699998,NA,NA,518445.229299999,362268.377500001,518445.162599997,"New experiment",19,"[0]","dist_present",56,87,"yes","yes",1680,NA,NA,NA,NA,"R","NR","lp",NA,NA,NA,NA,NA,NA,"practice",7,"NR","in"
"51",1194.98599999852,63963.2108000041,63963.2108000041,36,36,"y",7,"['1', '1', '1', '1', '1', '1', '1', '1', '1', '1', '1', '3', '1', '3', '1', '3', '1', '3', '1', '3', '1', '3', '2', '1', '2', '3', '2', '1', '2', '3', '1', '1', '2', 'space']","y","#000000","no",489216.333699998,1,"neutral","psycho","psycho","psycho",0,"uniform",1,0,0,0,NA,0,0,NA,0,0,0,0,50,50,NA,NA,NA,NA,0,0,0,NA,50,0,50,73.2296414732588,"Mon Nov  1 15:03:21 2021","The main experiment item","yes","green","no","4","circle",NA,"pinging_target_expectations 5.0.osexp","C:\Users\etp-cp-ping\Desktop\LocalPC-EXP",75,"no","mono","no",18,"no","white","no","yes",1050,NA,100,"psycho",50,0,50,"C:/Users/etp-cp-ping/Desktop/LocalPC-EXP/subject-23.csv","psycho",2,51,51,"Lentiform Loewenfeld","3.3.8","['vert', 'hori', 'vert', 'hori', 'hori', 'vert', 'vert', 'hori']","no",209,"None","yes",0,NA,2,"legacy",NA,1024,2,48000,-16,"experiment",23,"odd","red","no",6,"diamond",352461.3293,352471.9683,352472.010599999,NA,361021.347999998,NA,NA,62305.3899999977,6449.63709999865,NA,62305.4133999976,522527.8167,525758.217299997,NA,NA,NA,NA,6449.69729999866,361800.012699998,NA,NA,522527.831299998,362268.377500001,522527.765299998,"New experiment",19,"[0]","dist_present",56,75,"yes","yes",1680,NA,NA,NA,NA,"NR","NR","lp",NA,"Right",NA,"Right",NA,NA,"practice",7,"R","in"
"52",1704.62700000277,65667.8378000069,65667.8378000069,37,37,"y",7,"['1', '1', '1', '1', '1', '1', '1', '1', '1', '1', '1', '3', '1', '3', '1', '3', '1', '3', '1', '3', '1', '3', '2', '1', '2', '3', '2', '1', '2', '3', '1', '1', '2', 'space']","y","#000000","no",489216.333699998,1,"neutral","psycho","psycho","psycho",0,"uniform",1,0,0,0,NA,0,0,NA,0,0,0,0,51,51,NA,NA,NA,NA,0,0,0,NA,51,0,51,73.2296414732588,"Mon Nov  1 15:03:21 2021","The main experiment item","yes","red","no","0","circle",NA,"pinging_target_expectations 5.0.osexp","C:\Users\etp-cp-ping\Desktop\LocalPC-EXP",75,"no","mono","no",18,"no","white","no","yes",1050,NA,100,"psycho",51,0,51,"C:/Users/etp-cp-ping/Desktop/LocalPC-EXP/subject-23.csv","psycho",2,52,52,"Lentiform Loewenfeld","3.3.8","['hori', 'hori', 'vert', 'hori', 'hori', 'vert', 'vert', 'vert']","no",209,"None","yes",0,NA,2,"legacy",NA,1024,2,48000,-16,"experiment",23,"odd","green","no",3,"diamond",352461.3293,352471.9683,352472.010599999,NA,361021.347999998,NA,NA,62305.3899999977,6449.63709999865,NA,62305.4133999976,525789.482799999,529518.188300001,NA,NA,NA,NA,6449.69729999866,361800.012699998,NA,NA,525789.497599999,362268.377500001,525789.430199999,"New experiment",19,"[0, 73.47883495954375, 77.56524531176724, 92.27462043364075, 109.14950290485153, 125.90331305522503, 141.2108120331398, 155.8540984382509, 191.6507490956058, 207.57555185176093, 220.6500381673714, 235.52751394310462, 249.0321264415497, 265.3082988155683, 276.1017865182246, 286.30000524864096, 298.7037785038559, 309.3052253111568, 322.00038819852375, 329.10035540950827, 343.6004994079033, 346.2032617583904, 350.10113245920803, 350.20116874983546, 350.50690443087007, 349.02408197688203, 345.12931366288586, 341.43518698163035, 336.9108435715806, 329.51858824655096, 325.50812577238037, 315.30355580336584, 297.61939727572667, 288.1320631717988, 278.65230424340194, 270.5780848479788, 261.31055471576366, 247.64250525739084, 237.79383492783973, 227.4565569140697, 215.95058641718603, 204.5292263197269, 195.61271706022563, 183.94893123298803, 180.98505710018006, 159.1915320439874, 151.36068538454387, 143.08270555830083, 137.55579727253226, 131.3822300430842, 123.21642347577009, 113.93060677087604, 106.02198297534353, 98.53065298493088, 90.71673008430524, 83.54558036798855, 79.63127245763944]","dist_present",56,41,"yes","yes",1680,NA,NA,NA,NA,"NR","NR","lp",NA,"Left",NA,NA,NA,NA,"practice",6,"NR","in"
"53",1863.06689999765,67530.9047000046,67530.9047000046,38,38,"y",7,"['1', '1', '1', '1', '1', '1', '1', '1', '1', '1', '1', '3', '1', '3', '1', '3', '1', '3', '1', '3', '1', '3', '2', '1', '2', '3', '2', '1', '2', '3', '1', '1', '2', 'space']","y","#000000","no",529919.894899998,1,"neutral","psycho","psycho","psycho",0,"uniform",1,0,0,0,NA,0,0,NA,0,0,0,0,52,52,NA,NA,NA,NA,0,0,0,NA,52,0,52,73.2296414732588,"Mon Nov  1 15:03:21 2021","The main experiment item","yes","red","no","None","circle",NA,"pinging_target_expectations 5.0.osexp","C:\Users\etp-cp-ping\Desktop\LocalPC-EXP",75,"no","mono","no",18,"no","white","no","yes",1050,NA,100,"psycho",52,0,52,"C:/Users/etp-cp-ping/Desktop/LocalPC-EXP/subject-23.csv","psycho",3,53,53,"Lentiform Loewenfeld","3.3.8","['vert', 'hori', 'hori', 'vert', 'hori', 'vert', 'vert', 'hori']","no",209,"None","yes",0,NA,2,"legacy",NA,1024,2,48000,-16,"experiment",23,"odd","green","no",7,"diamond",352461.3293,352471.9683,352472.010599999,NA,361021.347999998,NA,NA,62305.3899999977,6449.63709999865,NA,62305.4133999976,529549.382599998,533262.202099999,NA,NA,NA,NA,6449.69729999866,361800.012699998,NA,NA,529549.397700001,362268.377500001,529549.3303,"New experiment",19,"[0]","dist_absent",56,89,"yes","yes",1680,NA,NA,NA,NA,"NR","NR","lp",NA,"Right",NA,NA,NA,NA,"practice",3,"NR","in"
"54",1059.3920000029,68590.2967000075,68590.2967000075,39,39,"y",7,"['1', '1', '1', '1', '1', '1', '1', '1', '1', '1', '1', '3', '1', '3', '1', '3', '1', '3', '1', '3', '1', '3', '2', '1', '2', '3', '2', '1', '2', '3', '1', '1', '2', 'space']","y","#000000","no",533742.9328,1,"neutral","psycho","psycho","psycho",0,"uniform",1,0,0,0,NA,0,0,NA,0,0,0,0,53,53,NA,NA,NA,NA,0,0,0,NA,53,0,53,73.2296414732588,"Mon Nov  1 15:03:21 2021","The main experiment item","yes","green","no","3","circle",NA,"pinging_target_expectations 5.0.osexp","C:\Users\etp-cp-ping\Desktop\LocalPC-EXP",75,"no","mono","no",18,"no","white","no","yes",1050,NA,100,"psycho",53,0,53,"C:/Users/etp-cp-ping/Desktop/LocalPC-EXP/subject-23.csv","psycho",4,54,54,"Lentiform Loewenfeld","3.3.8","['hori', 'vert', 'vert', 'hori', 'hori', 'hori', 'vert', 'vert']","yes",109,"circles","yes",0,NA,2,"legacy",NA,1024,2,48000,-16,"experiment",23,"odd","red","no",5,"diamond",352461.3293,352471.9683,352472.010599999,NA,361021.347999998,NA,NA,62305.3899999977,6449.63709999865,NA,62305.4133999976,533293.1293,536014.149799998,NA,NA,NA,NA,6449.69729999866,361800.012699998,NA,NA,533293.144200001,362268.377500001,533293.0758,"New experiment",19,"[0, 78.08008709011537, 93.12596580875415, 110.60038242377782, 132.2453919846458, 156.0259263311715, 182.42076315908577, 206.55119006244357, 232.95014777341706, 260.0046101980104, 289.24389953457955, 325.3363716700709, 358.7937275894324, 391.9879066158881, 429.7592690205562, 465.4161999199748, 503.03820943479764, 548.9057175888755, 591.2345918314726, 633.2155940089401, 678.312876919008, 722.3680815547044, 766.1193701036719, 819.6131831302739, 873.1342632857982, 926.3639943348403, 978.5814956247152, 1031.463596404647, 1075.9635520780394, 1133.2623069581336, 1168.3845614553748, 1195.6564962322677]","dist_present",56,64,"yes","no",1680,NA,NA,NA,NA,"NR","NR","lp",NA,NA,NA,NA,NA,NA,"practice",7,"NR","in"
"55",2000.92180000141,70591.2185000089,70591.2185000089,39,39,"y",7,"['1', '1', '1', '1', '1', '1', '1', '1', '1', '1', '1', '3', '1', '3', '1', '3', '1', '3', '1', '3', '1', '3', '2', '1', '2', '3', '2', '1', '2', '3', '1', '1', '2', 'space']","y","#000000","no",533742.9328,1,"neutral","psycho","psycho","psycho",0,"uniform",0,0,0,0,NA,0,0,NA,0,0,0,0,54,54,NA,NA,NA,NA,0,0,0,NA,54,0,54,73.2296414732588,"Mon Nov  1 15:03:21 2021","The main experiment item","yes","red","no","5","diamond",NA,"pinging_target_expectations 5.0.osexp","C:\Users\etp-cp-ping\Desktop\LocalPC-EXP",75,"no","mono","no",18,"no","white","no","yes",1050,NA,100,"psycho",54,0,54,"C:/Users/etp-cp-ping/Desktop/LocalPC-EXP/subject-23.csv","psycho",4,55,55,"Lentiform Loewenfeld","3.3.8","['vert', 'hori', 'vert', 'hori', 'hori', 'vert', 'vert', 'hori']","no",209,"None","yes",0,NA,2,"legacy",NA,1024,2,48000,-16,"experiment",23,"odd","green","no",6,"circle",352461.3293,352471.9683,352472.010599999,NA,361021.347999998,NA,NA,62305.3899999977,6449.63709999865,NA,62305.4133999976,536045.2635,539867.0881,NA,NA,NA,NA,6449.69729999866,361800.012699998,NA,NA,536045.278199999,362268.377500001,536045.2119,"New experiment",19,"[0]","dist_present",56,76,"yes","yes",1680,NA,NA,NA,NA,"NR","NR","lp",NA,NA,NA,NA,NA,NA,"practice",5,"NR","in"
"56",1323.55089999689,71914.7694000058,71914.7694000058,40,40,"y",7,"['1', '1', '1', '1', '1', '1', '1', '1', '1', '1', '1', '3', '1', '3', '1', '3', '1', '3', '1', '3', '1', '3', '2', '1', '2', '3', '2', '1', '2', '3', '1', '1', '2', 'space']","y","#000000","no",533742.9328,1,"neutral","psycho","psycho","psycho",0,"uniform",1,0,0,0,NA,0,0,NA,0,0,0,0,55,55,NA,NA,NA,NA,0,0,0,NA,55,0,55,73.2296414732588,"Mon Nov  1 15:03:21 2021","The main experiment item","yes","red","no","0","diamond",NA,"pinging_target_expectations 5.0.osexp","C:\Users\etp-cp-ping\Desktop\LocalPC-EXP",75,"no","mono","no",18,"no","white","no","yes",1050,NA,100,"psycho",55,0,55,"C:/Users/etp-cp-ping/Desktop/LocalPC-EXP/subject-23.csv","psycho",4,56,56,"Lentiform Loewenfeld","3.3.8","['vert', 'hori', 'vert', 'vert', 'hori', 'vert', 'hori', 'hori']","no",209,"None","yes",0,NA,2,"legacy",NA,1024,2,48000,-16,"experiment",23,"odd","green","no",2,"circle",352461.3293,352471.9683,352472.010599999,NA,361021.347999998,NA,NA,62305.3899999977,6449.63709999865,NA,62305.4133999976,539897.709699999,542990.132999999,NA,NA,NA,NA,6449.69729999866,361800.012699998,NA,NA,539897.724399998,362268.377500001,539897.658099999,"New experiment",19,"[0]","dist_present",56,31,"yes","yes",1680,NA,NA,NA,NA,"NR","NR","lp",NA,"Left",NA,"Left",NA,NA,"practice",6,"NR","in"
"57",1740.85090000147,1740.85090000147,73655.6203000072,0,40,"y",7,"['1', '1', '1', '1', '1', '1', '1', '1', '1', '1', '1', '3', '1', '3', '1', '3', '1', '3', '1', '3', '1', '3', '2', '1', '2', '3', '2', '1', '2', '3', '1', '1', '2', 'space']","y","#000000","no",533742.9328,2,"bias","psycho","psycho","psycho",0,"uniform",0,0,1,1,NA,1,0,NA,0,0,1,0,56,56,NA,NA,NA,NA,0,1,1,NA,56,1,56,73.2296414732588,"Mon Nov  1 15:03:21 2021","The main experiment item","yes","red","no","1","diamond",NA,"pinging_target_expectations 5.0.osexp","C:\Users\etp-cp-ping\Desktop\LocalPC-EXP",75,"no","mono","no",18,"no","white","no","yes",1050,NA,6,"psycho",0,1,0,"C:/Users/etp-cp-ping/Desktop/LocalPC-EXP/subject-23.csv","psycho",0,57,1,"Lentiform Loewenfeld","3.3.8","['vert', 'hori', 'vert', 'hori', 'hori', 'vert', 'vert', 'hori']","no",206,"None","no",0,NA,2,"legacy",NA,1024,2,48000,-16,"experiment",23,"odd","green","no",2,"circle",352461.3293,603536.435499998,603536.580899999,NA,638369.906799999,NA,NA,62305.3899999977,6449.63709999865,543529.884299998,62305.4133999976,639802.672499998,643502.007399999,NA,NA,NA,NA,6449.69729999866,639328.9123,543020.2709,NA,639802.689799999,639798.177000001,639802.600999999,"New experiment",19,"[0]","dist_present",56,32,"yes","yes",1680,-10.8873917158307,-38.4508102261555,"more toward","False","NR","NR","lp",NA,NA,NA,NA,4,-3,"first",999,"NR","in"
"58",1608.50050000229,3349.35140000377,75264.1208000095,0,40,"y",7,"['1', '1', '1', '1', '1', '1', '1', '1', '1', '1', '1', '3', '1', '3', '1', '3', '1', '3', '1', '3', '1', '3', '2', '1', '2', '3', '2', '1', '2', '3', '1', '1', '2', 'space']","y","#000000","no",533742.9328,2,"bias","psycho","psycho","psycho",0,"uniform",0,0,1,1,NA,1,0,NA,0,0,1,0,57,57,NA,NA,NA,NA,0,1,1,NA,57,1,57,73.2296414732588,"Mon Nov  1 15:03:21 2021","The main experiment item","yes","green","no","None","circle",NA,"pinging_target_expectations 5.0.osexp","C:\Users\etp-cp-ping\Desktop\LocalPC-EXP",75,"no","mono","no",18,"no","white","no","yes",1050,NA,6,"psycho",1,1,1,"C:/Users/etp-cp-ping/Desktop/LocalPC-EXP/subject-23.csv","psycho",0,58,2,"Lentiform Loewenfeld","3.3.8","['hori', 'vert', 'vert', 'hori', 'hori', 'hori', 'vert', 'vert']","yes",106,"diamond","no",0,NA,2,"legacy",NA,1024,2,48000,-16,"experiment",23,"odd","red","no",1,"diamond",352461.3293,603536.435499998,603536.580899999,NA,638369.906799999,NA,NA,62305.3899999977,6449.63709999865,543529.884299998,62305.4133999976,643533.602199997,647277.995299999,NA,NA,NA,NA,6449.69729999866,639328.9123,543020.2709,NA,643533.6169,639798.177000001,643533.5505,"New experiment",19,"[0]","dist_absent",56,29,"yes","yes",1680,-28.4157667158308,-35.0441852261555,"more toward","False","NR","NR","lp",NA,"Left",NA,NA,-3,NA,"first",2,"NR","in"
"59",1713.15479999967,5062.50620000344,76977.2756000092,1,41,"y",7,"['1', '1', '1', '1', '1', '1', '1', '1', '1', '1', '1', '3', '1', '3', '1', '3', '1', '3', '1', '3', '1', '3', '2', '1', '2', '3', '2', '1', '2', '3', '1', '1', '2', 'space']","y","#000000","no",647864.4604,2,"bias","psycho","psycho","psycho",0,"uniform",1,0,1,1,NA,1,0,NA,0,0,1,0,58,58,NA,NA,NA,NA,0,1,1,NA,58,1,58,73.2296414732588,"Mon Nov  1 15:03:21 2021","The main experiment item","yes","red","no","2","diamond",NA,"pinging_target_expectations 5.0.osexp","C:\Users\etp-cp-ping\Desktop\LocalPC-EXP",75,"no","mono","no",18,"no","white","no","yes",1050,NA,6,"psycho",2,1,2,"C:/Users/etp-cp-ping/Desktop/LocalPC-EXP/subject-23.csv","psycho",1,59,3,"Lentiform Loewenfeld","3.3.8","['hori', 'hori', 'vert', 'hori', 'vert', 'hori', 'vert', 'vert']","no",206,"None","no",0,NA,2,"legacy",NA,1024,2,48000,-16,"experiment",23,"odd","green","yes",6,"circle",352461.3293,603536.435499998,603536.580899999,NA,638369.906799999,NA,NA,62305.3899999977,6449.63709999865,543529.884299998,62305.4133999976,647309.5651,650765.955299998,NA,NA,NA,NA,6449.69729999866,639328.9123,543020.2709,NA,647309.579699999,639798.177000001,647309.512899999,"New experiment",19,"[0, 81.88282226469723, 113.90519739740311, 148.64513374521587, 187.58658317951512, 231.12491257413737, 276.7387289292118, 321.51740351296525, 370.87279854774664, 428.9280134107316, 481.95393180046875, 544.6622783039301, 604.2746320971088, 663.0072472067205, 731.1157324148968, 804.4201509308651, 881.4576344820659, 959.5665144439392, 1034.2092579589728, 1118.7638173334935, 1206.443849202813, 1294.457034569207, 1372.741677174179, 1455.807806949932, 1518.1661588987527, 1586.885621182824]","dist_present",56,73,"yes","no",1680,-3.53701671583097,-20.1139352261554,"more toward","False","NR","NR","lp",NA,NA,NA,NA,0,4,"first",1,"NR","ex"
"60",1190.83179999876,6253.3380000022,78168.107400008,2,42,"y",7,"['1', '1', '1', '1', '1', '1', '1', '1', '1', '1', '1', '3', '1', '3', '1', '3', '1', '3', '1', '3', '1', '3', '2', '1', '2', '3', '2', '1', '2', '3', '1', '1', '2', 'space']","y","#000000","no",647864.4604,2,"bias","psycho","psycho","psycho",0,"uniform",1,0,1,1,NA,1,0,NA,0,0,1,0,59,59,NA,NA,NA,NA,0,1,1,NA,59,1,59,73.2296414732588,"Mon Nov  1 15:03:21 2021","The main experiment item","yes","red","no","3","diamond",NA,"pinging_target_expectations 5.0.osexp","C:\Users\etp-cp-ping\Desktop\LocalPC-EXP",75,"no","mono","no",18,"no","white","no","yes",1050,NA,6,"psycho",3,1,3,"C:/Users/etp-cp-ping/Desktop/LocalPC-EXP/subject-23.csv","psycho",1,60,4,"Lentiform Loewenfeld","3.3.8","['vert', 'hori', 'vert', 'hori', 'vert', 'vert', 'hori', 'hori']","no",206,"None","no",0,NA,2,"legacy",NA,1024,2,48000,-16,"experiment",23,"odd","green","no",1,"circle",352461.3293,603536.435499998,603536.580899999,NA,638369.906799999,NA,NA,62305.3899999977,6449.63709999865,543529.884299998,62305.4133999976,650797.589099999,653885.950100001,NA,NA,NA,NA,6449.69729999866,639328.9123,543020.2709,NA,650797.603700001,639798.177000001,650797.535999998,"New experiment",19,"[0]","dist_present",56,24,"yes","yes",1680,-29.4477667158309,-14.7380602261554,"more toward","False","NR","NR","hp",NA,NA,NA,NA,-3,3,"first",6,"NR","in"
"61",1427.04919999966,7680.38720000186,79595.1566000076,3,43,"y",7,"['1', '1', '1', '1', '1', '1', '1', '1', '1', '1', '1', '3', '1', '3', '1', '3', '1', '3', '1', '3', '1', '3', '2', '1', '2', '3', '2', '1', '2', '3', '1', '1', '2', 'space']","y","#000000","no",647864.4604,2,"bias","psycho","psycho","psycho",0,"uniform",1,0,1,1,NA,1,0,NA,0,0,1,0,60,60,NA,NA,NA,NA,0,1,1,NA,60,1,60,73.2296414732588,"Mon Nov  1 15:03:21 2021","The main experiment item","yes","green","no","4","circle",NA,"pinging_target_expectations 5.0.osexp","C:\Users\etp-cp-ping\Desktop\LocalPC-EXP",75,"no","mono","no",18,"no","white","no","yes",1050,NA,6,"psycho",4,1,4,"C:/Users/etp-cp-ping/Desktop/LocalPC-EXP/subject-23.csv","psycho",1,61,5,"Lentiform Loewenfeld","3.3.8","['hori', 'hori', 'hori', 'vert', 'vert', 'vert', 'vert', 'hori']","yes",106,"diamond","no",0,NA,2,"legacy",NA,1024,2,48000,-16,"experiment",23,"odd","red","no",5,"diamond",352461.3293,603536.435499998,603536.580899999,NA,638369.906799999,NA,NA,62305.3899999977,6449.63709999865,543529.884299998,62305.4133999976,653916.9028,657470.0328,NA,NA,NA,NA,6449.69729999866,639328.9123,543020.2709,NA,653916.9176,639798.177000001,653916.8503,"New experiment",19,"[0]","dist_present",56,65,"yes","yes",1680,-21.0041417158309,19.9514397738445,"more toward","False","NR","NR","lp",NA,"Right",NA,NA,1,2,"first",1,"NR","in"
"62",2000.03189999913,9680.41910000099,81595.1885000067,3,43,"y",7,"['1', '1', '1', '1', '1', '1', '1', '1', '1', '1', '1', '3', '1', '3', '1', '3', '1', '3', '1', '3', '1', '3', '2', '1', '2', '3', '2', '1', '2', '3', '1', '1', '2', 'space']","y","#000000","no",647864.4604,2,"bias","psycho","psycho","psycho",0,"uniform",0,0,1,1,NA,1,0,NA,0,0,1,0,61,61,NA,NA,NA,NA,0,1,1,NA,61,1,61,73.2296414732588,"Mon Nov  1 15:03:21 2021","The main experiment item","yes","green","no","2","circle",NA,"pinging_target_expectations 5.0.osexp","C:\Users\etp-cp-ping\Desktop\LocalPC-EXP",75,"no","mono","no",18,"no","white","no","yes",1050,NA,6,"psycho",5,1,5,"C:/Users/etp-cp-ping/Desktop/LocalPC-EXP/subject-23.csv","psycho",1,62,6,"Lentiform Loewenfeld","3.3.8","['vert', 'hori', 'vert', 'hori', 'vert', 'vert', 'hori', 'hori']","no",206,"None","no",0,NA,2,"legacy",NA,1024,2,48000,-16,"experiment",23,"odd","red","no",0,"diamond",352461.3293,603536.435499998,603536.580899999,NA,638369.906799999,NA,NA,62305.3899999977,6449.63709999865,543529.884299998,62305.4133999976,657501.0416,661416.880699999,NA,NA,NA,NA,6449.69729999866,639328.9123,543020.2709,NA,657501.0564,639798.177000001,657500.989199998,"New experiment",19,"[0]","dist_present",56,13,"yes","yes",1680,-11.5576417158309,28.0123147738445,"more toward","False","NR","NR","lp","Left",NA,"Left",NA,-2,4,"first",5,"NR","in"
"63",1214.79929999996,10895.2184000009,82809.9878000067,4,44,"y",7,"['1', '1', '1', '1', '1', '1', '1', '1', '1', '1', '1', '3', '1', '3', '1', '3', '1', '3', '1', '3', '1', '3', '2', '1', '2', '3', '2', '1', '2', '3', '1', '1', '2', 'space']","y","#000000","no",662034.664700001,2,"bias","psycho","psycho","psycho",0,"uniform",1,0,1,1,NA,1,0,NA,0,0,1,0,62,62,NA,NA,NA,NA,0,1,1,NA,62,1,62,73.2296414732588,"Mon Nov  1 15:03:21 2021","The main experiment item","yes","green","yes","6","diamond",NA,"pinging_target_expectations 5.0.osexp","C:\Users\etp-cp-ping\Desktop\LocalPC-EXP",75,"no","mono","no",18,"no","white","no","yes",1050,NA,6,"psycho",6,1,6,"C:/Users/etp-cp-ping/Desktop/LocalPC-EXP/subject-23.csv","psycho",2,63,7,"Lentiform Loewenfeld","3.3.8","['vert', 'hori', 'hori', 'vert', 'hori', 'vert', 'vert', 'hori']","no",206,"None","no",0,NA,2,"legacy",NA,1024,2,48000,-16,"experiment",23,"odd","red","no",5,"circle",352461.3293,603536.435499998,603536.580899999,NA,638369.906799999,NA,NA,62305.3899999977,6449.63709999865,543529.884299998,62305.4133999976,661447.660399997,664733.977299999,NA,NA,NA,NA,6449.69729999866,639328.9123,543020.2709,NA,661447.674999999,639798.177000001,661447.608499999,"New experiment",19,"[0, 88.17695634282238, 109.20938198602573, 134.03889095001708, 157.2778834874047, 185.3323984429015, 209.9779393465113, 239.7809486437992, 274.02570649898144, 311.19105865264214, 347.8400948629103, 390.2756229138851, 432.2488068129414, 476.96041875053703, 522.9474413747814, 572.2348695233807, 620.8670060481704, 670.1452166773613, 716.9935904184726, 771.472264520455, 828.3247739873382, 888.4022756493292, 949.4344654964142, 1016.1994383959244, 1093.2822202189495, 1181.9563093167997, 1263.9065681171571, 1336.4663040177643, 1396.7042587424014, 1464.5801548983488, 1539.6852344557872, 73.39888412916775, 73.38424024481918, 73.27079556291491]","dist_present",56,67,"yes","yes",1680,-7.25776671583079,22.9015647738445,"more toward","False","NR","NR","lp",NA,NA,NA,NA,1,0,"first",0,"NR","in"
"64",1111.21030000143,12006.4287000024,83921.1981000081,5,45,"y",7,"['1', '1', '1', '1', '1', '1', '1', '1', '1', '1', '1', '3', '1', '3', '1', '3', '1', '3', '1', '3', '1', '3', '2', '1', '2', '3', '2', '1', '2', '3', '1', '1', '2', 'space']","y","#000000","no",662034.664700001,2,"bias","psycho","psycho","psycho",0,"uniform",1,0,1,1,NA,1,0,NA,0,0,1,0,63,63,NA,NA,NA,NA,0,1,1,NA,63,1,63,73.2296414732588,"Mon Nov  1 15:03:21 2021","The main experiment item","yes","red","yes","6","circle",NA,"pinging_target_expectations 5.0.osexp","C:\Users\etp-cp-ping\Desktop\LocalPC-EXP",75,"no","mono","no",18,"no","white","no","yes",1050,NA,6,"psycho",7,1,7,"C:/Users/etp-cp-ping/Desktop/LocalPC-EXP/subject-23.csv","psycho",2,64,8,"Lentiform Loewenfeld","3.3.8","['hori', 'vert', 'vert', 'hori', 'vert', 'hori', 'vert', 'hori']","yes",106,"diamond","no",0,NA,2,"legacy",NA,1024,2,48000,-16,"experiment",23,"odd","green","no",0,"diamond",352461.3293,603536.435499998,603536.580899999,NA,638369.906799999,NA,NA,62305.3899999977,6449.63709999865,543529.884299998,62305.4133999976,664765.1257,667965.912799998,NA,NA,NA,NA,6449.69729999866,639328.9123,543020.2709,NA,664765.1405,639798.177000001,664765.072800001,"New experiment",19,"[0, 73.29998779296875, 73.51149548378041, 73.51965751759222, 73.42209163487382, 73.33006278403764, 73.33606312243093, 73.63590394704475, 73.5245543527741, 73.46545741107435, 73.89268088636733, 73.78307257980353, 73.28363928674342, 73.27893253265734, 73.26562383371163, 73.56962741597343, 74.26474035608685, 74.2606343328926, 73.86506648528616, 74.06915740120951, 74.34203512169482, 74.23565016467083, 74.14213634524253, 74.14557474916494, 74.94513680202759, 74.94867392519548, 75.24846777081754, 75.04858470296503, 74.8384813516173, 74.14915001370314, 74.50217327865933, 74.30775068270864, 74.20785929964921, 74.40227400063515, 74.15670248493181, 73.55718959831295, 73.79283088246945, 73.37057848422297, 73.8627242834636, 73.69292026092315, 73.39331237096162, 73.45341051051166, 73.44966745944524, 73.44258699137015, 73.34969854312617, 73.32040568387995, 74.19229388668822, 73.35344669536764, 73.32726785070727, 73.36551001037733, 73.35344669536764]","dist_present",56,17,"yes","yes",1680,-2.5202667158308,32.8715647738445,"more toward","False","NR","R","lp","Right",NA,"Right",NA,-2,0,"first",5,"NR","in"
"65",936.251800001715,12942.6805000041,84857.4499000098,6,46,"y",7,"['1', '1', '1', '1', '1', '1', '1', '1', '1', '1', '1', '3', '1', '3', '1', '3', '1', '3', '1', '3', '1', '3', '2', '1', '2', '3', '2', '1', '2', '3', '1', '1', '2', 'space']","y","#000000","no",662034.664700001,2,"bias","psycho","psycho","psycho",0,"uniform",1,0,1,1,NA,1,0,NA,0,0,1,0,64,64,NA,NA,NA,NA,0,1,1,NA,64,1,64,73.2296414732588,"Mon Nov  1 15:03:21 2021","The main experiment item","yes","red","no","1","diamond",NA,"pinging_target_expectations 5.0.osexp","C:\Users\etp-cp-ping\Desktop\LocalPC-EXP",75,"no","mono","no",18,"no","white","no","yes",1050,NA,6,"psycho",8,1,8,"C:/Users/etp-cp-ping/Desktop/LocalPC-EXP/subject-23.csv","psycho",2,65,9,"Lentiform Loewenfeld","3.3.8","['hori', 'hori', 'hori', 'vert', 'vert', 'vert', 'hori', 'vert']","no",206,"None","no",0,NA,2,"legacy",NA,1024,2,48000,-16,"experiment",23,"odd","green","no",5,"circle",352461.3293,603536.435499998,603536.580899999,NA,638369.906799999,NA,NA,62305.3899999977,6449.63709999865,543529.884299998,62305.4133999976,667996.994599998,670749.964499999,NA,NA,NA,NA,6449.69729999866,639328.9123,543020.2709,NA,667997.009299997,639798.177000001,667996.942199999,"New experiment",19,"[0]","dist_present",56,62,"yes","yes",1680,-0.217391715830738,17.9693147738445,"more toward","False","NR","NR","lp",NA,NA,NA,NA,1,-3,"first",0,"NR","in"
"66",922.318799999543,13864.9993000036,85779.7687000094,7,47,"y",7,"['1', '1', '1', '1', '1', '1', '1', '1', '1', '1', '1', '3', '1', '3', '1', '3', '1', '3', '1', '3', '1', '3', '2', '1', '2', '3', '2', '1', '2', '3', '1', '1', '2', 'space']","y","#000000","no",662034.664700001,2,"bias","psycho","psycho","psycho",0,"uniform",1,0,1,1,NA,1,0,NA,0,0,1,0,65,65,NA,NA,NA,NA,0,1,1,NA,65,1,65,73.2296414732588,"Mon Nov  1 15:03:21 2021","The main experiment item","yes","green","no","5","circle",NA,"pinging_target_expectations 5.0.osexp","C:\Users\etp-cp-ping\Desktop\LocalPC-EXP",75,"no","mono","no",18,"no","white","no","yes",1050,NA,6,"psycho",9,1,9,"C:/Users/etp-cp-ping/Desktop/LocalPC-EXP/subject-23.csv","psycho",2,66,10,"Lentiform Loewenfeld","3.3.8","['hori', 'vert', 'hori', 'vert', 'vert', 'vert', 'hori', 'hori']","yes",106,"circles","no",0,NA,2,"legacy",NA,1024,2,48000,-16,"experiment",23,"odd","red","no",7,"diamond",352461.3293,603536.435499998,603536.580899999,NA,638369.906799999,NA,NA,62305.3899999977,6449.63709999865,543529.884299998,62305.4133999976,670782.712599997,673405.934899998,NA,NA,NA,NA,6449.69729999866,639328.9123,543020.2709,NA,670782.7273,639798.177000001,670782.659599998,"New experiment",19,"[0]","dist_present",56,86,"yes","yes",1680,2.58473328416922,23.4004397738445,"more toward","False","NR","NR","lp",NA,NA,NA,NA,-1,1,"first",5,"NR","in"
"67",834.515599999577,14699.5149000032,86614.284300009,8,48,"y",7,"['1', '1', '1', '1', '1', '1', '1', '1', '1', '1', '1', '3', '1', '3', '1', '3', '1', '3', '1', '3', '1', '3', '2', '1', '2', '3', '2', '1', '2', '3', '1', '1', '2', 'space']","y","#000000","no",662034.664700001,2,"bias","psycho","psycho","psycho",0,"uniform",1,0,1,1,NA,1,0,NA,0,0,1,0,66,66,NA,NA,NA,NA,0,1,1,NA,66,1,66,73.2296414732588,"Mon Nov  1 15:03:21 2021","The main experiment item","yes","red","no","None","circle",NA,"pinging_target_expectations 5.0.osexp","C:\Users\etp-cp-ping\Desktop\LocalPC-EXP",75,"no","mono","no",18,"no","white","no","yes",1050,NA,6,"psycho",10,1,10,"C:/Users/etp-cp-ping/Desktop/LocalPC-EXP/subject-23.csv","psycho",2,67,11,"Lentiform Loewenfeld","3.3.8","['vert', 'vert', 'hori', 'vert', 'vert', 'hori', 'hori', 'hori']","no",206,"None","no",0,NA,2,"legacy",NA,1024,2,48000,-16,"experiment",23,"odd","green","yes",6,"diamond",352461.3293,603536.435499998,603536.580899999,NA,638369.906799999,NA,NA,62305.3899999977,6449.63709999865,543529.884299998,62305.4133999976,673438.545499997,676205.915399998,NA,NA,NA,NA,6449.69729999866,639328.9123,543020.2709,NA,673438.560399998,639798.177000001,673438.485399998,"New experiment",19,"[0, 73.50537149536777, 73.3441700496681, 73.55169985303043, 73.74669017335374, 73.51787443423825, 74.78800736028886, 73.5611191260061, 73.2592948854312, 73.3567365739633, 73.26934921357247, 75.936842203946, 76.44636528401769, 74.84149918327398, 73.98625324306201, 73.96388631955992, 73.54482825253902, 73.91865213726678, 73.74119293282992, 73.54482825253902, 73.4771909861529, 73.51311386519107, 73.26952178270865, 73.42588578373159, 73.48914125118542, 73.52586239825409, 74.13838412050805, 73.84505239144639, 73.348483283569, 73.60330235909804, 74.83797746528792, 74.38742938749164, 74.03546447480423, 74.39037470749419, 74.09682602153073, 74.23615328853403, 73.9428038071551, 74.13838412050805, 74.47367726893395, 74.67833658484146, 74.5806852889162, 74.27201455458436, 74.52961531881745, 74.04062084529576, 74.60296569329614, 75.06033551274535, 75.43074596293067, 74.77919395875695, 74.64325618138967, 74.6839745670358, 74.97768474986384, 74.81853770279777, 74.60296569329614, 74.13948718173675, 73.96923403015985, 73.3788193080784, 74.56461717054115, 74.88254849654011, 74.37268830113285, 73.58653796270237, 73.48831265696789, 73.52280749982957]","dist_absent",56,79,"yes","yes",1680,2.01935828416915,37.5665647738445,"more toward","False","NR","NR","lp",NA,"Right",NA,"Right",0,NA,"first",7,"NR","ex"
