"","RT","RT_bl","RT_tot","acc_bl","acc_tot","answer_debrief_1","answer_debrief_2","answer_debrief_3","answer_debrief_4","background","bidi","blink_onset","block_cnt","block_type","canvas_backend","clock_backend","color_backend","compensation","coordinates","correct","count_block_loop","count_block_seq","count_block_settings","count_check_session","count_drift_correct","count_end_loop","count_end_seq","count_exp_settings","count_experiment","count_feedback","count_instructions","count_log_variables","count_logger","count_new_inline_script","count_new_pygaze_drift_correct","count_new_pygaze_start_recording","count_new_pygaze_stop_recording","count_pygaze","count_start_recording","count_stop_recording","count_test_location","count_trial","count_trial_loop","count_trial_seq","d_eye","datetime","description","disable_garbage_collection","dist_color","dist_high","dist_loc","dist_shape","empty_column","experiment_file","experiment_path","eye_threshold_length","font_bold","font_family","font_italic","font_size","font_underline","foreground","form_clicks","fullscreen","height","high_loc","high_prob_loc","keyboard_backend","live_row","live_row_block_loop","live_row_trial_loop","logfile","mouse_backend","nr_blinks","nr_trials","nr_trials_bl","opensesame_codename","opensesame_version","orient_list_trial","ping","ping_trigger","ping_type","practice","repeat_cycle","response","round_decimals","sampler_backend","session_nr","sound_buf_size","sound_channels","sound_freq","sound_sample_size","start","subject_nr","subject_parity","target_color","target_high","target_loc","target_shape","time_block_loop","time_block_seq","time_block_settings","time_check_session","time_drift_correct","time_end_loop","time_end_seq","time_exp_settings","time_experiment","time_feedback","time_instructions","time_log_variables","time_logger","time_new_inline_script","time_new_pygaze_drift_correct","time_new_pygaze_start_recording","time_new_pygaze_stop_recording","time_pygaze","time_start_recording","time_stop_recording","time_test_location","time_trial","time_trial_loop","time_trial_seq","title","total_blocks","tracker_dev","trial_type","trials_in_block","trigger","uniform_coordinates","update_blinks","width","x","y","toward","containsNaN","rept","repd","prevtar","pd","nt","pd_c","nt_c","tar_dist","dist_dist","prevHP","eegTar","repteeg","tarcounter"
"1",2000.71710000024,2000.71710000024,2000.71710000024,0,0,"n",7,"['7', '3', '8', 'space']","n","#000000","no",1398.61520000022,1,"neutral","psycho","psycho","psycho",0,"uniform",0,0,0,0,NA,0,0,NA,0,0,0,0,0,0,NA,NA,NA,NA,0,0,0,NA,0,0,0,73.2296414732588,"Thu Sep 30 11:31:13 2021","The main experiment item","yes","red","no","None","diamond",NA,"pinging_target_expectations 4.0.osexp","C:\Users\etp-cp-ping\Desktop\LocalPC-EXP",75,"no","mono","no",18,"no","white","no","yes",1050,NA,100,"psycho",0,0,0,"C:/Users/etp-cp-ping/Desktop/LocalPC-EXP/subject-17.csv","psycho",0,1,1,"Lentiform Loewenfeld","3.3.8","['vert', 'hori', 'hori', 'hori', 'vert', 'vert', 'hori', 'vert']","no",209,"None","yes",0,NA,2,"legacy",NA,1024,2,48000,-16,"experiment",17,"odd","green","no",2,"circle",291182.4662,291257.2315,291257.2711,NA,304446.4516,NA,NA,29031.2507000003,1403.43359999997,NA,29031.2729000002,326162.7635,329988.8265,NA,NA,NA,NA,1403.51370000008,325789.1908,NA,NA,326162.7787,326158.493,326162.7194,"New experiment",19,"[0]","dist_absent",56,39,"yes","yes",1680,NA,NA,NA,NA,"NR","NR","lp",NA,"Left",NA,"Left",NA,NA,"practice",999,"NR","in"
"2",2000.62740000017,4001.34450000041,4001.34450000041,0,0,"n",7,"['7', '3', '8', 'space']","n","#000000","no",331317.0756,1,"neutral","psycho","psycho","psycho",0,"uniform",0,0,0,0,NA,0,0,NA,0,0,0,0,1,1,NA,NA,NA,NA,0,0,0,NA,1,0,1,73.2296414732588,"Thu Sep 30 11:31:13 2021","The main experiment item","yes","red","no","2","circle",NA,"pinging_target_expectations 4.0.osexp","C:\Users\etp-cp-ping\Desktop\LocalPC-EXP",75,"no","mono","no",18,"no","white","no","yes",1050,NA,100,"psycho",1,0,1,"C:/Users/etp-cp-ping/Desktop/LocalPC-EXP/subject-17.csv","psycho",1,2,2,"Lentiform Loewenfeld","3.3.8","['vert', 'hori', 'hori', 'vert', 'hori', 'vert', 'hori', 'vert']","no",209,"None","yes",0,NA,2,"legacy",NA,1024,2,48000,-16,"experiment",17,"odd","green","no",6,"diamond",291182.4662,291257.2315,291257.2711,NA,304446.4516,NA,NA,29031.2507000003,1403.43359999997,NA,29031.2729000002,330029.2377,333887.4833,NA,NA,NA,NA,1403.51370000008,325789.1908,NA,NA,330029.2519,326158.493,330029.1902,"New experiment",19,"[0]","dist_present",56,73,"yes","yes",1680,NA,NA,NA,NA,"NR","NR","lp",NA,NA,NA,NA,NA,NA,"practice",2,"NR","in"
"3",2000.74409999978,6002.08860000019,6002.08860000019,0,0,"n",7,"['7', '3', '8', 'space']","n","#000000","no",334751.6636,1,"neutral","psycho","psycho","psycho",0,"uniform",0,0,0,0,NA,0,0,NA,0,0,0,0,2,2,NA,NA,NA,NA,0,0,0,NA,2,0,2,73.2296414732588,"Thu Sep 30 11:31:13 2021","The main experiment item","yes","red","no","3","circle",NA,"pinging_target_expectations 4.0.osexp","C:\Users\etp-cp-ping\Desktop\LocalPC-EXP",75,"no","mono","no",18,"no","white","no","yes",1050,NA,100,"psycho",2,0,2,"C:/Users/etp-cp-ping/Desktop/LocalPC-EXP/subject-17.csv","psycho",2,3,3,"Lentiform Loewenfeld","3.3.8","['vert', 'hori', 'vert', 'hori', 'hori', 'vert', 'vert', 'hori']","no",209,"None","yes",0,NA,2,"legacy",NA,1024,2,48000,-16,"experiment",17,"odd","green","no",6,"diamond",291182.4662,291257.2315,291257.2711,NA,304446.4516,NA,NA,29031.2507000003,1403.43359999997,NA,29031.2729000002,333917.9563,337770.8784,NA,NA,NA,NA,1403.51370000008,325789.1908,NA,NA,333917.9706,326158.493,333917.9064,"New experiment",19,"[0]","dist_present",56,74,"yes","yes",1680,NA,NA,NA,NA,"R","NR","lp",NA,NA,NA,NA,NA,NA,"practice",6,"NR","in"
"4",2000.21379999997,8002.30240000016,8002.30240000016,0,0,"n",7,"['7', '3', '8', 'space']","n","#000000","no",334751.6636,1,"neutral","psycho","psycho","psycho",0,"uniform",0,0,0,0,NA,0,0,NA,0,0,0,0,3,3,NA,NA,NA,NA,0,0,0,NA,3,0,3,73.2296414732588,"Thu Sep 30 11:31:13 2021","The main experiment item","yes","green","no","4","circle",NA,"pinging_target_expectations 4.0.osexp","C:\Users\etp-cp-ping\Desktop\LocalPC-EXP",75,"no","mono","no",18,"no","white","no","yes",1050,NA,100,"psycho",3,0,3,"C:/Users/etp-cp-ping/Desktop/LocalPC-EXP/subject-17.csv","psycho",2,4,4,"Lentiform Loewenfeld","3.3.8","['vert', 'hori', 'hori', 'hori', 'vert', 'hori', 'vert', 'vert']","yes",109,"circles","yes",0,NA,2,"legacy",NA,1024,2,48000,-16,"experiment",17,"odd","red","no",3,"diamond",291182.4662,291257.2315,291257.2711,NA,304446.4516,NA,NA,29031.2507000003,1403.43359999997,NA,29031.2729000002,337801.0543,341697.8363,NA,NA,NA,NA,1403.51370000008,325789.1908,NA,NA,337801.0682,326158.493,337801.0065,"New experiment",19,"[0]","dist_present",56,45,"yes","yes",1680,NA,NA,NA,NA,"NR","NR","lp",NA,"Left",NA,NA,NA,NA,"practice",6,"R","in"
"5",2000.33770000027,10002.6401000004,10002.6401000004,0,0,"n",7,"['7', '3', '8', 'space']","n","#000000","no",334751.6636,1,"neutral","psycho","psycho","psycho",0,"uniform",0,0,0,0,NA,0,0,NA,0,0,0,0,4,4,NA,NA,NA,NA,0,0,0,NA,4,0,4,73.2296414732588,"Thu Sep 30 11:31:13 2021","The main experiment item","yes","green","no","3","diamond",NA,"pinging_target_expectations 4.0.osexp","C:\Users\etp-cp-ping\Desktop\LocalPC-EXP",75,"no","mono","no",18,"no","white","no","yes",1050,NA,100,"psycho",4,0,4,"C:/Users/etp-cp-ping/Desktop/LocalPC-EXP/subject-17.csv","psycho",2,5,5,"Lentiform Loewenfeld","3.3.8","['vert', 'hori', 'vert', 'vert', 'hori', 'hori', 'hori', 'vert']","no",209,"None","yes",0,NA,2,"legacy",NA,1024,2,48000,-16,"experiment",17,"odd","red","no",7,"circle",291182.4662,291257.2315,291257.2711,NA,304446.4516,NA,NA,29031.2507000003,1403.43359999997,NA,29031.2729000002,341727.9563,345612.5678,NA,NA,NA,NA,1403.51370000008,325789.1908,NA,NA,341727.9707,326158.493,341727.9029,"New experiment",19,"[0]","dist_present",56,84,"yes","yes",1680,NA,NA,NA,NA,"NR","NR","lp",NA,NA,NA,NA,NA,NA,"practice",3,"NR","in"
"6",2000.13879999961,12002.7789,12002.7789,0,0,"n",7,"['7', '3', '8', 'space']","n","#000000","no",334751.6636,1,"neutral","psycho","psycho","psycho",0,"uniform",0,0,0,0,NA,0,0,NA,0,0,0,0,5,5,NA,NA,NA,NA,0,0,0,NA,5,0,5,73.2296414732588,"Thu Sep 30 11:31:13 2021","The main experiment item","yes","red","no","None","diamond",NA,"pinging_target_expectations 4.0.osexp","C:\Users\etp-cp-ping\Desktop\LocalPC-EXP",75,"no","mono","no",18,"no","white","no","yes",1050,NA,100,"psycho",5,0,5,"C:/Users/etp-cp-ping/Desktop/LocalPC-EXP/subject-17.csv","psycho",2,6,6,"Lentiform Loewenfeld","3.3.8","['vert', 'vert', 'hori', 'vert', 'hori', 'hori', 'vert', 'hori']","no",209,"None","yes",0,NA,2,"legacy",NA,1024,2,48000,-16,"experiment",17,"odd","green","no",0,"circle",291182.4662,291257.2315,291257.2711,NA,304446.4516,NA,NA,29031.2507000003,1403.43359999997,NA,29031.2729000002,345642.6648,349383.9751,NA,NA,NA,NA,1403.51370000008,325789.1908,NA,NA,345642.6788,326158.493,345642.6151,"New experiment",19,"[0]","dist_absent",56,19,"yes","yes",1680,NA,NA,NA,NA,"NR","NR","lp",NA,NA,NA,NA,NA,NA,"practice",7,"NR","in"
"7",2000.5541999999,14003.3330999999,14003.3330999999,0,0,"n",7,"['7', '3', '8', 'space']","n","#000000","no",334751.6636,1,"neutral","psycho","psycho","psycho",0,"uniform",0,0,0,0,NA,0,0,NA,0,0,0,0,6,6,NA,NA,NA,NA,0,0,0,NA,6,0,6,73.2296414732588,"Thu Sep 30 11:31:13 2021","The main experiment item","yes","green","no","6","diamond",NA,"pinging_target_expectations 4.0.osexp","C:\Users\etp-cp-ping\Desktop\LocalPC-EXP",75,"no","mono","no",18,"no","white","no","yes",1050,NA,100,"psycho",6,0,6,"C:/Users/etp-cp-ping/Desktop/LocalPC-EXP/subject-17.csv","psycho",2,7,7,"Lentiform Loewenfeld","3.3.8","['hori', 'hori', 'vert', 'vert', 'hori', 'vert', 'vert', 'hori']","no",209,"None","yes",0,NA,2,"legacy",NA,1024,2,48000,-16,"experiment",17,"odd","red","no",4,"circle",291182.4662,291257.2315,291257.2711,NA,304446.4516,NA,NA,29031.2507000003,1403.43359999997,NA,29031.2729000002,349414.0817,353154.6261,NA,NA,NA,NA,1403.51370000008,325789.1908,NA,NA,349414.096,326158.493,349414.0274,"New experiment",19,"[0]","dist_present",56,57,"yes","yes",1680,NA,NA,NA,NA,"NR","NR","lp","Right",NA,"Right",NA,NA,NA,"practice",0,"NR","in"
"8",2000.39340000012,16003.7265,16003.7265,0,0,"n",7,"['7', '3', '8', 'space']","n","#000000","no",334751.6636,1,"neutral","psycho","psycho","psycho",0,"uniform",0,0,0,0,NA,0,0,NA,0,0,0,0,7,7,NA,NA,NA,NA,0,0,0,NA,7,0,7,73.2296414732588,"Thu Sep 30 11:31:13 2021","The main experiment item","yes","red","no","3","diamond",NA,"pinging_target_expectations 4.0.osexp","C:\Users\etp-cp-ping\Desktop\LocalPC-EXP",75,"no","mono","no",18,"no","white","no","yes",1050,NA,100,"psycho",7,0,7,"C:/Users/etp-cp-ping/Desktop/LocalPC-EXP/subject-17.csv","psycho",2,8,8,"Lentiform Loewenfeld","3.3.8","['hori', 'vert', 'vert', 'vert', 'vert', 'hori', 'hori', 'hori']","yes",109,"circles","yes",0,NA,2,"legacy",NA,1024,2,48000,-16,"experiment",17,"odd","green","no",7,"circle",291182.4662,291257.2315,291257.2711,NA,304446.4516,NA,NA,29031.2507000003,1403.43359999997,NA,29031.2729000002,353184.695,357073.3207,NA,NA,NA,NA,1403.51370000008,325789.1908,NA,NA,353184.7099,326158.493,353184.6432,"New experiment",19,"[0, 93.41179809551947, 90.45624909583958, 83.74273784979131, 80.30898273244301, 77.46437558557855, 75.96423362372752]","dist_present",56,84,"yes","yes",1680,NA,NA,NA,NA,"NR","NR","lp",NA,NA,NA,NA,NA,NA,"practice",4,"NR","in"
"9",2000.15900000016,18003.8855000002,18003.8855000002,0,0,"n",7,"['7', '3', '8', 'space']","n","#000000","no",334751.6636,1,"neutral","psycho","psycho","psycho",0,"uniform",0,0,0,0,NA,0,0,NA,0,0,0,0,8,8,NA,NA,NA,NA,0,0,0,NA,8,0,8,73.2296414732588,"Thu Sep 30 11:31:13 2021","The main experiment item","yes","red","no","None","circle",NA,"pinging_target_expectations 4.0.osexp","C:\Users\etp-cp-ping\Desktop\LocalPC-EXP",75,"no","mono","no",18,"no","white","no","yes",1050,NA,100,"psycho",8,0,8,"C:/Users/etp-cp-ping/Desktop/LocalPC-EXP/subject-17.csv","psycho",2,9,9,"Lentiform Loewenfeld","3.3.8","['vert', 'hori', 'vert', 'hori', 'vert', 'vert', 'hori', 'hori']","no",209,"None","yes",0,NA,2,"legacy",NA,1024,2,48000,-16,"experiment",17,"odd","green","no",4,"diamond",291182.4662,291257.2315,291257.2711,NA,304446.4516,NA,NA,29031.2507000003,1403.43359999997,NA,29031.2729000002,357103.4206,361067.7893,NA,NA,NA,NA,1403.51370000008,325789.1908,NA,NA,357103.4348,326158.493,357103.3702,"New experiment",19,"[0]","dist_absent",56,59,"yes","yes",1680,NA,NA,NA,NA,"NR","NR","lp",NA,NA,NA,NA,NA,NA,"practice",7,"NR","in"
"10",2000.04620000027,20003.9317000005,20003.9317000005,0,0,"n",7,"['7', '3', '8', 'space']","n","#000000","no",334751.6636,1,"neutral","psycho","psycho","psycho",0,"uniform",0,0,0,0,NA,0,0,NA,0,0,0,0,9,9,NA,NA,NA,NA,0,0,0,NA,9,0,9,73.2296414732588,"Thu Sep 30 11:31:13 2021","The main experiment item","yes","red","no","None","diamond",NA,"pinging_target_expectations 4.0.osexp","C:\Users\etp-cp-ping\Desktop\LocalPC-EXP",75,"no","mono","no",18,"no","white","no","yes",1050,NA,100,"psycho",9,0,9,"C:/Users/etp-cp-ping/Desktop/LocalPC-EXP/subject-17.csv","psycho",2,10,10,"Lentiform Loewenfeld","3.3.8","['vert', 'vert', 'hori', 'hori', 'hori', 'hori', 'vert', 'vert']","yes",109,"diamond","yes",0,NA,2,"legacy",NA,1024,2,48000,-16,"experiment",17,"odd","green","no",5,"circle",291182.4662,291257.2315,291257.2711,NA,304446.4516,NA,NA,29031.2507000003,1403.43359999997,NA,29031.2729000002,361098.0341,365049.8296,NA,NA,NA,NA,1403.51370000008,325789.1908,NA,NA,361098.0484,326158.493,361097.9862,"New experiment",19,"[0]","dist_absent",56,69,"yes","yes",1680,NA,NA,NA,NA,"NR","R","lp",NA,"Right",NA,NA,NA,NA,"practice",4,"NR","in"
"11",2000.11060000001,22004.0423000005,22004.0423000005,0,0,"n",7,"['7', '3', '8', 'space']","n","#000000","no",366702.1977,1,"neutral","psycho","psycho","psycho",0,"uniform",0,0,0,0,NA,0,0,NA,0,0,0,0,10,10,NA,NA,NA,NA,0,0,0,NA,10,0,10,73.2296414732588,"Thu Sep 30 11:31:13 2021","The main experiment item","yes","green","no","None","circle",NA,"pinging_target_expectations 4.0.osexp","C:\Users\etp-cp-ping\Desktop\LocalPC-EXP",75,"no","mono","no",18,"no","white","no","yes",1050,NA,100,"psycho",10,0,10,"C:/Users/etp-cp-ping/Desktop/LocalPC-EXP/subject-17.csv","psycho",3,11,11,"Lentiform Loewenfeld","3.3.8","['vert', 'vert', 'hori', 'hori', 'vert', 'hori', 'hori', 'vert']","no",209,"None","yes",0,NA,2,"legacy",NA,1024,2,48000,-16,"experiment",17,"odd","red","no",5,"diamond",291182.4662,291257.2315,291257.2711,NA,304446.4516,NA,NA,29031.2507000003,1403.43359999997,NA,29031.2729000002,365080.1007,369174.3817,NA,NA,NA,NA,1403.51370000008,325789.1908,NA,NA,365080.1147,326158.493,365080.0526,"New experiment",19,"[0, 182.67635618327577, 202.50180023071616, 220.55251293493532, 236.57128216030225, 254.50442039383128, 274.2046801500873, 294.80136167711373, 311.0486296385181, 334.13303308902323, 354.3671707241127, 361.90218394902104, 400.6402750049668, 406.7821525056972, 425.3426756091342, 454.69077522714304, 468.83082346957247, 483.97394925211427, 515.5774326094127, 532.0150297821141, 567.8580765796327, 590.4963974573928, 607.2757524081553, 633.7834180796431, 651.4304487739612, 681.8046919956945, 690.6954205189013]","dist_absent",56,69,"yes","no",1680,NA,NA,NA,NA,"R","R","lp",NA,"Right",NA,NA,NA,NA,"practice",5,"NR","in"
"12",2000.86029999965,24004.9026000001,24004.9026000001,0,0,"n",7,"['7', '3', '8', 'space']","n","#000000","no",370395.7437,1,"neutral","psycho","psycho","psycho",0,"uniform",0,0,0,0,NA,0,0,NA,0,0,0,0,11,11,NA,NA,NA,NA,0,0,0,NA,11,0,11,73.2296414732588,"Thu Sep 30 11:31:13 2021","The main experiment item","yes","green","no","7","diamond",NA,"pinging_target_expectations 4.0.osexp","C:\Users\etp-cp-ping\Desktop\LocalPC-EXP",75,"no","mono","no",18,"no","white","no","yes",1050,NA,100,"psycho",11,0,11,"C:/Users/etp-cp-ping/Desktop/LocalPC-EXP/subject-17.csv","psycho",4,12,12,"Lentiform Loewenfeld","3.3.8","['vert', 'vert', 'hori', 'vert', 'hori', 'hori', 'vert', 'hori']","no",209,"None","yes",0,NA,2,"legacy",NA,1024,2,48000,-16,"experiment",17,"odd","red","no",3,"circle",291182.4662,291257.2315,291257.2711,NA,304446.4516,NA,NA,29031.2507000003,1403.43359999997,NA,29031.2729000002,369204.5965,373134.4707,NA,NA,NA,NA,1403.51370000008,325789.1908,NA,NA,369204.6108,326158.493,369204.5472,"New experiment",19,"[0]","dist_present",56,48,"yes","yes",1680,NA,NA,NA,NA,"NR","NR","lp",NA,NA,NA,NA,NA,NA,"practice",5,"R","in"
"13",2000.81069999986,26005.7133,26005.7133,0,0,"n",7,"['7', '3', '8', 'space']","n","#000000","no",370395.7437,1,"neutral","psycho","psycho","psycho",0,"uniform",0,0,0,0,NA,0,0,NA,0,0,0,0,12,12,NA,NA,NA,NA,0,0,0,NA,12,0,12,73.2296414732588,"Thu Sep 30 11:31:13 2021","The main experiment item","yes","green","no","None","circle",NA,"pinging_target_expectations 4.0.osexp","C:\Users\etp-cp-ping\Desktop\LocalPC-EXP",75,"no","mono","no",18,"no","white","no","yes",1050,NA,100,"psycho",12,0,12,"C:/Users/etp-cp-ping/Desktop/LocalPC-EXP/subject-17.csv","psycho",4,13,13,"Lentiform Loewenfeld","3.3.8","['hori', 'hori', 'vert', 'vert', 'vert', 'vert', 'hori', 'hori']","yes",109,"circles","yes",0,NA,2,"legacy",NA,1024,2,48000,-16,"experiment",17,"odd","red","no",4,"diamond",291182.4662,291257.2315,291257.2711,NA,304446.4516,NA,NA,29031.2507000003,1403.43359999997,NA,29031.2729000002,373164.679,377049.2917,NA,NA,NA,NA,1403.51370000008,325789.1908,NA,NA,373164.6931,326158.493,373164.63,"New experiment",19,"[0]","dist_absent",56,59,"yes","yes",1680,NA,NA,NA,NA,"NR","NR","lp",NA,NA,NA,NA,NA,NA,"practice",3,"NR","in"
"14",2000.22290000017,28005.9362000002,28005.9362000002,0,0,"n",7,"['7', '3', '8', 'space']","n","#000000","no",370395.7437,1,"neutral","psycho","psycho","psycho",0,"uniform",0,0,0,0,NA,0,0,NA,0,0,0,0,13,13,NA,NA,NA,NA,0,0,0,NA,13,0,13,73.2296414732588,"Thu Sep 30 11:31:13 2021","The main experiment item","yes","red","no","5","circle",NA,"pinging_target_expectations 4.0.osexp","C:\Users\etp-cp-ping\Desktop\LocalPC-EXP",75,"no","mono","no",18,"no","white","no","yes",1050,NA,100,"psycho",13,0,13,"C:/Users/etp-cp-ping/Desktop/LocalPC-EXP/subject-17.csv","psycho",4,14,14,"Lentiform Loewenfeld","3.3.8","['hori', 'hori', 'hori', 'vert', 'vert', 'vert', 'hori', 'vert']","yes",109,"diamond","yes",0,NA,2,"legacy",NA,1024,2,48000,-16,"experiment",17,"odd","green","no",6,"diamond",291182.4662,291257.2315,291257.2711,NA,304446.4516,NA,NA,29031.2507000003,1403.43359999997,NA,29031.2729000002,377079.457,380975.5421,NA,NA,NA,NA,1403.51370000008,325789.1908,NA,NA,377079.4712,326158.493,377079.4096,"New experiment",19,"[0, 73.23555895005723, 74.05569514822923, 74.06931492248685, 73.94715886826077, 74.82911162954142, 73.36758690060573, 73.41860604688253, 73.49356412153313, 73.60249826918337, 73.73472008025186, 75.31539630712324, 73.3655232380987]","dist_present",56,76,"yes","yes",1680,NA,NA,NA,NA,"NR","NR","lp",NA,NA,NA,NA,NA,NA,"practice",4,"NR","in"
"15",2000.13459999993,30006.0708000001,30006.0708000001,0,0,"n",7,"['7', '3', '8', 'space']","n","#000000","no",370395.7437,1,"neutral","psycho","psycho","psycho",0,"uniform",0,0,0,0,NA,0,0,NA,0,0,0,0,14,14,NA,NA,NA,NA,0,0,0,NA,14,0,14,73.2296414732588,"Thu Sep 30 11:31:13 2021","The main experiment item","yes","green","no","3","diamond",NA,"pinging_target_expectations 4.0.osexp","C:\Users\etp-cp-ping\Desktop\LocalPC-EXP",75,"no","mono","no",18,"no","white","no","yes",1050,NA,100,"psycho",14,0,14,"C:/Users/etp-cp-ping/Desktop/LocalPC-EXP/subject-17.csv","psycho",4,15,15,"Lentiform Loewenfeld","3.3.8","['hori', 'vert', 'vert', 'vert', 'hori', 'hori', 'hori', 'vert']","yes",109,"diamond","yes",0,NA,2,"legacy",NA,1024,2,48000,-16,"experiment",17,"odd","red","no",5,"circle",291182.4662,291257.2315,291257.2711,NA,304446.4516,NA,NA,29031.2507000003,1403.43359999997,NA,29031.2729000002,381005.6713,385045.5301,NA,NA,NA,NA,1403.51370000008,325789.1908,NA,NA,381005.6855,326158.493,381005.6223,"New experiment",19,"[0]","dist_present",56,64,"yes","yes",1680,NA,NA,NA,NA,"NR","NR","lp",NA,NA,NA,NA,NA,NA,"practice",6,"NR","in"
"16",2000.92880000011,32006.9996000002,32006.9996000002,0,0,"n",7,"['7', '3', '8', 'space']","n","#000000","no",370395.7437,1,"neutral","psycho","psycho","psycho",0,"uniform",0,0,0,0,NA,0,0,NA,0,0,0,0,15,15,NA,NA,NA,NA,0,0,0,NA,15,0,15,73.2296414732588,"Thu Sep 30 11:31:13 2021","The main experiment item","yes","green","no","2","diamond",NA,"pinging_target_expectations 4.0.osexp","C:\Users\etp-cp-ping\Desktop\LocalPC-EXP",75,"no","mono","no",18,"no","white","no","yes",1050,NA,100,"psycho",15,0,15,"C:/Users/etp-cp-ping/Desktop/LocalPC-EXP/subject-17.csv","psycho",4,16,16,"Lentiform Loewenfeld","3.3.8","['vert', 'vert', 'hori', 'hori', 'hori', 'vert', 'hori', 'vert']","yes",109,"circles","yes",0,NA,2,"legacy",NA,1024,2,48000,-16,"experiment",17,"odd","red","no",4,"circle",291182.4662,291257.2315,291257.2711,NA,304446.4516,NA,NA,29031.2507000003,1403.43359999997,NA,29031.2729000002,385075.7309,389063.2,NA,NA,NA,NA,1403.51370000008,325789.1908,NA,NA,385075.745,326158.493,385075.6821,"New experiment",19,"[0]","dist_present",56,53,"yes","yes",1680,NA,NA,NA,NA,"NR","NR","lp","Left",NA,"Left",NA,NA,NA,"practice",5,"NR","in"
"17",2000.12349999993,34007.1231000001,34007.1231000001,0,0,"n",7,"['7', '3', '8', 'space']","n","#000000","no",390472.6064,1,"neutral","psycho","psycho","psycho",0,"uniform",0,0,0,0,NA,0,0,NA,0,0,0,0,16,16,NA,NA,NA,NA,0,0,0,NA,16,0,16,73.2296414732588,"Thu Sep 30 11:31:13 2021","The main experiment item","yes","green","no","5","circle",NA,"pinging_target_expectations 4.0.osexp","C:\Users\etp-cp-ping\Desktop\LocalPC-EXP",75,"no","mono","no",18,"no","white","no","yes",1050,NA,100,"psycho",16,0,16,"C:/Users/etp-cp-ping/Desktop/LocalPC-EXP/subject-17.csv","psycho",5,17,17,"Lentiform Loewenfeld","3.3.8","['hori', 'hori', 'hori', 'hori', 'vert', 'vert', 'vert', 'vert']","yes",109,"circles","yes",0,NA,2,"legacy",NA,1024,2,48000,-16,"experiment",17,"odd","red","no",1,"diamond",291182.4662,291257.2315,291257.2711,NA,304446.4516,NA,NA,29031.2507000003,1403.43359999997,NA,29031.2729000002,389093.3034,392790.7401,NA,NA,NA,NA,1403.51370000008,325789.1908,NA,NA,389093.3181,326158.493,389093.254,"New experiment",19,"[0]","dist_present",56,26,"yes","yes",1680,NA,NA,NA,NA,"NR","NR","lp",NA,NA,NA,NA,NA,NA,"practice",4,"NR","in"
"18",2000.73770000017,36007.8608000003,36007.8608000003,0,0,"n",7,"['7', '3', '8', 'space']","n","#000000","no",390472.6064,1,"neutral","psycho","psycho","psycho",0,"uniform",0,0,0,0,NA,0,0,NA,0,0,0,0,17,17,NA,NA,NA,NA,0,0,0,NA,17,0,17,73.2296414732588,"Thu Sep 30 11:31:13 2021","The main experiment item","yes","green","no","4","circle",NA,"pinging_target_expectations 4.0.osexp","C:\Users\etp-cp-ping\Desktop\LocalPC-EXP",75,"no","mono","no",18,"no","white","no","yes",1050,NA,100,"psycho",17,0,17,"C:/Users/etp-cp-ping/Desktop/LocalPC-EXP/subject-17.csv","psycho",5,18,18,"Lentiform Loewenfeld","3.3.8","['vert', 'hori', 'vert', 'hori', 'hori', 'hori', 'vert', 'vert']","yes",109,"circles","yes",0,NA,2,"legacy",NA,1024,2,48000,-16,"experiment",17,"odd","red","no",3,"diamond",291182.4662,291257.2315,291257.2711,NA,304446.4516,NA,NA,29031.2507000003,1403.43359999997,NA,29031.2729000002,392820.9026,396672.5551,NA,NA,NA,NA,1403.51370000008,325789.1908,NA,NA,392820.917,326158.493,392820.8547,"New experiment",19,"[0]","dist_present",56,45,"yes","yes",1680,NA,NA,NA,NA,"NR","NR","lp",NA,"Left",NA,NA,NA,NA,"practice",1,"NR","in"
"19",2000.50439999998,38008.3652000003,38008.3652000003,0,0,"n",7,"['7', '3', '8', 'space']","n","#000000","no",397334.7554,1,"neutral","psycho","psycho","psycho",0,"uniform",0,0,0,0,NA,0,0,NA,0,0,0,0,18,18,NA,NA,NA,NA,0,0,0,NA,18,0,18,73.2296414732588,"Thu Sep 30 11:31:13 2021","The main experiment item","yes","red","no","6","diamond",NA,"pinging_target_expectations 4.0.osexp","C:\Users\etp-cp-ping\Desktop\LocalPC-EXP",75,"no","mono","no",18,"no","white","no","yes",1050,NA,100,"psycho",18,0,18,"C:/Users/etp-cp-ping/Desktop/LocalPC-EXP/subject-17.csv","psycho",6,19,19,"Lentiform Loewenfeld","3.3.8","['hori', 'vert', 'hori', 'vert', 'vert', 'vert', 'hori', 'hori']","yes",109,"circles","yes",0,NA,2,"legacy",NA,1024,2,48000,-16,"experiment",17,"odd","green","no",0,"circle",291182.4662,291257.2315,291257.2711,NA,304446.4516,NA,NA,29031.2507000003,1403.43359999997,NA,29031.2729000002,396702.8266,400481.6736,NA,NA,NA,NA,1403.51370000008,325789.1908,NA,NA,396702.8407,326158.493,396702.7779,"New experiment",19,"[0]","dist_present",56,17,"yes","yes",1680,NA,NA,NA,NA,"NR","NR","lp","Right",NA,"Right",NA,NA,NA,"practice",3,"NR","in"
"20",2000.4786999998,40008.8439000001,40008.8439000001,0,0,"n",7,"['7', '3', '8', 'space']","n","#000000","no",401214.3141,1,"neutral","psycho","psycho","psycho",0,"uniform",0,0,0,0,NA,0,0,NA,0,0,0,0,19,19,NA,NA,NA,NA,0,0,0,NA,19,0,19,73.2296414732588,"Thu Sep 30 11:31:13 2021","The main experiment item","yes","red","no","None","circle",NA,"pinging_target_expectations 4.0.osexp","C:\Users\etp-cp-ping\Desktop\LocalPC-EXP",75,"no","mono","no",18,"no","white","no","yes",1050,NA,100,"psycho",19,0,19,"C:/Users/etp-cp-ping/Desktop/LocalPC-EXP/subject-17.csv","psycho",7,20,20,"Lentiform Loewenfeld","3.3.8","['hori', 'vert', 'vert', 'vert', 'hori', 'hori', 'hori', 'vert']","yes",109,"circles","yes",0,NA,2,"legacy",NA,1024,2,48000,-16,"experiment",17,"odd","green","no",5,"diamond",291182.4662,291257.2315,291257.2711,NA,304446.4516,NA,NA,29031.2507000003,1403.43359999997,NA,29031.2729000002,400511.8615,404363.5238,NA,NA,NA,NA,1403.51370000008,325789.1908,NA,NA,400511.8756,326158.493,400511.8135,"New experiment",19,"[0]","dist_absent",56,69,"yes","yes",1680,NA,NA,NA,NA,"NR","NR","lp",NA,"Right",NA,NA,NA,NA,"practice",0,"NR","in"
"21",1161.85840000026,41170.7023000004,41170.7023000004,1,1,"n",7,"['7', '3', '8', 'space']","n","#000000","no",401214.3141,1,"neutral","psycho","psycho","psycho",0,"uniform",1,0,0,0,NA,0,0,NA,0,0,0,0,20,20,NA,NA,NA,NA,0,0,0,NA,20,0,20,73.2296414732588,"Thu Sep 30 11:31:13 2021","The main experiment item","yes","green","no","1","circle",NA,"pinging_target_expectations 4.0.osexp","C:\Users\etp-cp-ping\Desktop\LocalPC-EXP",75,"no","mono","no",18,"no","white","no","yes",1050,NA,100,"psycho",20,0,20,"C:/Users/etp-cp-ping/Desktop/LocalPC-EXP/subject-17.csv","psycho",7,21,21,"Lentiform Loewenfeld","3.3.8","['hori', 'hori', 'vert', 'vert', 'vert', 'vert', 'hori', 'hori']","no",209,"None","yes",0,NA,2,"legacy",NA,1024,2,48000,-16,"experiment",17,"odd","red","no",6,"diamond",291182.4662,291257.2315,291257.2711,NA,304446.4516,NA,NA,29031.2507000003,1403.43359999997,NA,29031.2729000002,404393.8955,407439.0655,NA,NA,NA,NA,1403.51370000008,325789.1908,NA,NA,404393.9098,326158.493,404393.8462,"New experiment",19,"[0]","dist_present",56,72,"yes","yes",1680,NA,NA,NA,NA,"NR","NR","lp",NA,NA,NA,NA,NA,NA,"practice",5,"NR","in"
"22",1395.47579999996,42566.1781000003,42566.1781000003,2,2,"n",7,"['7', '3', '8', 'space']","n","#000000","no",401214.3141,1,"neutral","psycho","psycho","psycho",0,"uniform",1,0,0,0,NA,0,0,NA,0,0,0,0,21,21,NA,NA,NA,NA,0,0,0,NA,21,0,21,73.2296414732588,"Thu Sep 30 11:31:13 2021","The main experiment item","yes","red","no","7","circle",NA,"pinging_target_expectations 4.0.osexp","C:\Users\etp-cp-ping\Desktop\LocalPC-EXP",75,"no","mono","no",18,"no","white","no","yes",1050,NA,100,"psycho",21,0,21,"C:/Users/etp-cp-ping/Desktop/LocalPC-EXP/subject-17.csv","psycho",7,22,22,"Lentiform Loewenfeld","3.3.8","['hori', 'hori', 'hori', 'hori', 'vert', 'vert', 'vert', 'vert']","no",209,"None","yes",0,NA,2,"legacy",NA,1024,2,48000,-16,"experiment",17,"odd","green","no",5,"diamond",291182.4662,291257.2315,291257.2711,NA,304446.4516,NA,NA,29031.2507000003,1403.43359999997,NA,29031.2729000002,407469.4743,410991.0667,NA,NA,NA,NA,1403.51370000008,325789.1908,NA,NA,407469.4883,326158.493,407469.4257,"New experiment",19,"[0]","dist_present",56,68,"yes","yes",1680,NA,NA,NA,NA,"NR","NR","lp",NA,NA,NA,NA,NA,NA,"practice",6,"NR","in"
"23",1954.3007000002,44520.4788000005,44520.4788000005,2,2,"n",7,"['7', '3', '8', 'space']","n","#000000","no",401214.3141,1,"neutral","psycho","psycho","psycho",0,"uniform",0,0,0,0,NA,0,0,NA,0,0,0,0,22,22,NA,NA,NA,NA,0,0,0,NA,22,0,22,73.2296414732588,"Thu Sep 30 11:31:13 2021","The main experiment item","yes","green","no","5","diamond",NA,"pinging_target_expectations 4.0.osexp","C:\Users\etp-cp-ping\Desktop\LocalPC-EXP",75,"no","mono","no",18,"no","white","no","yes",1050,NA,100,"psycho",22,0,22,"C:/Users/etp-cp-ping/Desktop/LocalPC-EXP/subject-17.csv","psycho",7,23,23,"Lentiform Loewenfeld","3.3.8","['vert', 'hori', 'hori', 'hori', 'vert', 'vert', 'vert', 'hori']","yes",109,"diamond","yes",0,NA,2,"legacy",NA,1024,2,48000,-16,"experiment",17,"odd","red","no",6,"circle",291182.4662,291257.2315,291257.2711,NA,304446.4516,NA,NA,29031.2507000003,1403.43359999997,NA,29031.2729000002,411021.4544,414686.9214,NA,NA,NA,NA,1403.51370000008,325789.1908,NA,NA,411021.4684,326158.493,411021.4054,"New experiment",19,"[0]","dist_present",56,76,"yes","yes",1680,NA,NA,NA,NA,"NR","NR","lp",NA,NA,NA,NA,NA,NA,"practice",5,"NR","in"
"24",2000.02080000011,46520.4996000006,46520.4996000006,2,2,"n",7,"['7', '3', '8', 'space']","n","#000000","no",415648.0751,1,"neutral","psycho","psycho","psycho",0,"uniform",0,0,0,0,NA,0,0,NA,0,0,0,0,23,23,NA,NA,NA,NA,0,0,0,NA,23,0,23,73.2296414732588,"Thu Sep 30 11:31:13 2021","The main experiment item","yes","green","no","7","circle",NA,"pinging_target_expectations 4.0.osexp","C:\Users\etp-cp-ping\Desktop\LocalPC-EXP",75,"no","mono","no",18,"no","white","no","yes",1050,NA,100,"psycho",23,0,23,"C:/Users/etp-cp-ping/Desktop/LocalPC-EXP/subject-17.csv","psycho",8,24,24,"Lentiform Loewenfeld","3.3.8","['vert', 'vert', 'hori', 'hori', 'hori', 'vert', 'vert', 'hori']","yes",109,"diamond","yes",0,NA,2,"legacy",NA,1024,2,48000,-16,"experiment",17,"odd","red","no",6,"diamond",291182.4662,291257.2315,291257.2711,NA,304446.4516,NA,NA,29031.2507000003,1403.43359999997,NA,29031.2729000002,414717.4346,418436.728,NA,NA,NA,NA,1403.51370000008,325789.1908,NA,NA,414717.4486,326158.493,414717.3854,"New experiment",19,"[0]","dist_present",56,78,"yes","yes",1680,NA,NA,NA,NA,"R","NR","lp",NA,NA,NA,NA,NA,NA,"practice",6,"NR","in"
"25",1157.74549999973,47678.2451000003,47678.2451000003,3,3,"n",7,"['7', '3', '8', 'space']","n","#000000","no",415648.0751,1,"neutral","psycho","psycho","psycho",0,"uniform",1,0,0,0,NA,0,0,NA,0,0,0,0,24,24,NA,NA,NA,NA,0,0,0,NA,24,0,24,73.2296414732588,"Thu Sep 30 11:31:13 2021","The main experiment item","yes","green","no","4","diamond",NA,"pinging_target_expectations 4.0.osexp","C:\Users\etp-cp-ping\Desktop\LocalPC-EXP",75,"no","mono","no",18,"no","white","no","yes",1050,NA,100,"psycho",24,0,24,"C:/Users/etp-cp-ping/Desktop/LocalPC-EXP/subject-17.csv","psycho",8,25,25,"Lentiform Loewenfeld","3.3.8","['hori', 'vert', 'vert', 'vert', 'hori', 'hori', 'vert', 'hori']","no",209,"None","yes",0,NA,2,"legacy",NA,1024,2,48000,-16,"experiment",17,"odd","red","no",2,"circle",291182.4662,291257.2315,291257.2711,NA,304446.4516,NA,NA,29031.2507000003,1403.43359999997,NA,29031.2729000002,418467.0707,421390.9072,NA,NA,NA,NA,1403.51370000008,325789.1908,NA,NA,418467.0847,326158.493,418467.0225,"New experiment",19,"[0]","dist_present",56,35,"yes","yes",1680,NA,NA,NA,NA,"NR","NR","lp",NA,"Left",NA,"Left",NA,NA,"practice",6,"R","in"
"26",1090.03909999999,48768.2842000003,48768.2842000003,4,4,"n",7,"['7', '3', '8', 'space']","n","#000000","no",415648.0751,1,"neutral","psycho","psycho","psycho",0,"uniform",1,0,0,0,NA,0,0,NA,0,0,0,0,25,25,NA,NA,NA,NA,0,0,0,NA,25,0,25,73.2296414732588,"Thu Sep 30 11:31:13 2021","The main experiment item","yes","green","no","None","diamond",NA,"pinging_target_expectations 4.0.osexp","C:\Users\etp-cp-ping\Desktop\LocalPC-EXP",75,"no","mono","no",18,"no","white","no","yes",1050,NA,100,"psycho",25,0,25,"C:/Users/etp-cp-ping/Desktop/LocalPC-EXP/subject-17.csv","psycho",8,26,26,"Lentiform Loewenfeld","3.3.8","['hori', 'vert', 'hori', 'hori', 'hori', 'vert', 'vert', 'vert']","yes",109,"diamond","yes",0,NA,2,"legacy",NA,1024,2,48000,-16,"experiment",17,"odd","red","no",1,"circle",291182.4662,291257.2315,291257.2711,NA,304446.4516,NA,NA,29031.2507000003,1403.43359999997,NA,29031.2729000002,421421.4368,424430.8783,NA,NA,NA,NA,1403.51370000008,325789.1908,NA,NA,421421.4509,326158.493,421421.3894,"New experiment",19,"[0]","dist_absent",56,29,"yes","yes",1680,NA,NA,NA,NA,"NR","NR","lp",NA,"Left",NA,NA,NA,NA,"practice",2,"NR","in"
"27",1115.15109999978,49883.4353000001,49883.4353000001,5,5,"n",7,"['7', '3', '8', 'space']","n","#000000","no",425154.7344,1,"neutral","psycho","psycho","psycho",0,"uniform",1,0,0,0,NA,0,0,NA,0,0,0,0,26,26,NA,NA,NA,NA,0,0,0,NA,26,0,26,73.2296414732588,"Thu Sep 30 11:31:13 2021","The main experiment item","yes","green","no","None","diamond",NA,"pinging_target_expectations 4.0.osexp","C:\Users\etp-cp-ping\Desktop\LocalPC-EXP",75,"no","mono","no",18,"no","white","no","yes",1050,NA,100,"psycho",26,0,26,"C:/Users/etp-cp-ping/Desktop/LocalPC-EXP/subject-17.csv","psycho",9,27,27,"Lentiform Loewenfeld","3.3.8","['vert', 'hori', 'hori', 'vert', 'hori', 'vert', 'vert', 'hori']","no",209,"None","yes",0,NA,2,"legacy",NA,1024,2,48000,-16,"experiment",17,"odd","red","no",2,"circle",291182.4662,291257.2315,291257.2711,NA,304446.4516,NA,NA,29031.2507000003,1403.43359999997,NA,29031.2729000002,424461.3419,427422.8582,NA,NA,NA,NA,1403.51370000008,325789.1908,NA,NA,424461.3558,326158.493,424461.2926,"New experiment",19,"[0]","dist_absent",56,39,"yes","yes",1680,NA,NA,NA,NA,"NR","R","lp",NA,"Left",NA,"Left",NA,NA,"practice",1,"NR","in"
"28",1656.05010000034,51539.4854000005,51539.4854000005,6,6,"n",7,"['7', '3', '8', 'space']","n","#000000","no",425154.7344,1,"neutral","psycho","psycho","psycho",0,"uniform",1,0,0,0,NA,0,0,NA,0,0,0,0,27,27,NA,NA,NA,NA,0,0,0,NA,27,0,27,73.2296414732588,"Thu Sep 30 11:31:13 2021","The main experiment item","yes","green","no","2","circle",NA,"pinging_target_expectations 4.0.osexp","C:\Users\etp-cp-ping\Desktop\LocalPC-EXP",75,"no","mono","no",18,"no","white","no","yes",1050,NA,100,"psycho",27,0,27,"C:/Users/etp-cp-ping/Desktop/LocalPC-EXP/subject-17.csv","psycho",9,28,28,"Lentiform Loewenfeld","3.3.8","['hori', 'vert', 'hori', 'hori', 'hori', 'vert', 'vert', 'vert']","no",209,"None","yes",0,NA,2,"legacy",NA,1024,2,48000,-16,"experiment",17,"odd","red","no",1,"diamond",291182.4662,291257.2315,291257.2711,NA,304446.4516,NA,NA,29031.2507000003,1403.43359999997,NA,29031.2729000002,427453.4744,431054.9153,NA,NA,NA,NA,1403.51370000008,325789.1908,NA,NA,427453.4886,326158.493,427453.4252,"New experiment",19,"[0]","dist_present",56,23,"yes","yes",1680,NA,NA,NA,NA,"NR","NR","lp",NA,NA,NA,NA,NA,NA,"practice",2,"NR","in"
"29",2000.30640000023,53539.7918000007,53539.7918000007,6,6,"n",7,"['7', '3', '8', 'space']","n","#000000","no",431682.8537,1,"neutral","psycho","psycho","psycho",0,"uniform",0,0,0,0,NA,0,0,NA,0,0,0,0,28,28,NA,NA,NA,NA,0,0,0,NA,28,0,28,73.2296414732588,"Thu Sep 30 11:31:13 2021","The main experiment item","yes","red","no","5","diamond",NA,"pinging_target_expectations 4.0.osexp","C:\Users\etp-cp-ping\Desktop\LocalPC-EXP",75,"no","mono","no",18,"no","white","no","yes",1050,NA,100,"psycho",28,0,28,"C:/Users/etp-cp-ping/Desktop/LocalPC-EXP/subject-17.csv","psycho",10,29,29,"Lentiform Loewenfeld","3.3.8","['hori', 'vert', 'hori', 'hori', 'vert', 'hori', 'vert', 'vert']","no",209,"None","yes",0,NA,2,"legacy",NA,1024,2,48000,-16,"experiment",17,"odd","green","no",0,"circle",291182.4662,291257.2315,291257.2711,NA,304446.4516,NA,NA,29031.2507000003,1403.43359999997,NA,29031.2729000002,431085.415,435119.5151,NA,NA,NA,NA,1403.51370000008,325789.1908,NA,NA,431085.4291,326158.493,431085.3672,"New experiment",19,"[0]","dist_present",56,16,"yes","yes",1680,NA,NA,NA,NA,"NR","NR","lp","Right",NA,NA,NA,NA,NA,"practice",1,"NR","in"
"30",1658.92780000012,55198.7196000008,55198.7196000008,7,7,"n",7,"['7', '3', '8', 'space']","n","#000000","no",435763.4129,1,"neutral","psycho","psycho","psycho",0,"uniform",1,0,0,0,NA,0,0,NA,0,0,0,0,29,29,NA,NA,NA,NA,0,0,0,NA,29,0,29,73.2296414732588,"Thu Sep 30 11:31:13 2021","The main experiment item","yes","red","no","2","circle",NA,"pinging_target_expectations 4.0.osexp","C:\Users\etp-cp-ping\Desktop\LocalPC-EXP",75,"no","mono","no",18,"no","white","no","yes",1050,NA,100,"psycho",29,0,29,"C:/Users/etp-cp-ping/Desktop/LocalPC-EXP/subject-17.csv","psycho",11,30,30,"Lentiform Loewenfeld","3.3.8","['vert', 'hori', 'vert', 'hori', 'hori', 'hori', 'vert', 'vert']","no",209,"None","yes",0,NA,2,"legacy",NA,1024,2,48000,-16,"experiment",17,"odd","green","no",0,"diamond",291182.4662,291257.2315,291257.2711,NA,304446.4516,NA,NA,29031.2507000003,1403.43359999997,NA,29031.2729000002,435149.7712,438654.8833,NA,NA,NA,NA,1403.51370000008,325789.1908,NA,NA,435149.7852,326158.493,435149.7239,"New experiment",19,"[0]","dist_present",56,13,"yes","yes",1680,NA,NA,NA,NA,"R","NR","lp","Left",NA,"Left",NA,NA,NA,"practice",0,"NR","in"
"31",1867.31340000004,57066.0330000009,57066.0330000009,8,8,"n",7,"['7', '3', '8', 'space']","n","#000000","no",435763.4129,1,"neutral","psycho","psycho","psycho",0,"uniform",1,0,0,0,NA,0,0,NA,0,0,0,0,30,30,NA,NA,NA,NA,0,0,0,NA,30,0,30,73.2296414732588,"Thu Sep 30 11:31:13 2021","The main experiment item","yes","red","no","6","circle",NA,"pinging_target_expectations 4.0.osexp","C:\Users\etp-cp-ping\Desktop\LocalPC-EXP",75,"no","mono","no",18,"no","white","no","yes",1050,NA,100,"psycho",30,0,30,"C:/Users/etp-cp-ping/Desktop/LocalPC-EXP/subject-17.csv","psycho",11,31,31,"Lentiform Loewenfeld","3.3.8","['hori', 'vert', 'hori', 'hori', 'vert', 'vert', 'vert', 'hori']","yes",109,"diamond","yes",0,NA,2,"legacy",NA,1024,2,48000,-16,"experiment",17,"odd","green","no",4,"diamond",291182.4662,291257.2315,291257.2711,NA,304446.4516,NA,NA,29031.2507000003,1403.43359999997,NA,29031.2729000002,438685.1969,442446.8497,NA,NA,NA,NA,1403.51370000008,325789.1908,NA,NA,438685.211,326158.493,438685.1473,"New experiment",19,"[0]","dist_present",56,57,"yes","yes",1680,NA,NA,NA,NA,"NR","NR","lp","Right",NA,"Right",NA,NA,NA,"practice",0,"R","in"
"32",935.091799999995,58001.1248000009,58001.1248000009,9,9,"n",7,"['7', '3', '8', 'space']","n","#000000","no",443171.5363,1,"neutral","psycho","psycho","psycho",0,"uniform",1,0,0,0,NA,0,0,NA,0,0,0,0,31,31,NA,NA,NA,NA,0,0,0,NA,31,0,31,73.2296414732588,"Thu Sep 30 11:31:13 2021","The main experiment item","yes","green","no","1","circle",NA,"pinging_target_expectations 4.0.osexp","C:\Users\etp-cp-ping\Desktop\LocalPC-EXP",75,"no","mono","no",18,"no","white","no","yes",1050,NA,100,"psycho",31,0,31,"C:/Users/etp-cp-ping/Desktop/LocalPC-EXP/subject-17.csv","psycho",12,32,32,"Lentiform Loewenfeld","3.3.8","['hori', 'vert', 'hori', 'vert', 'hori', 'vert', 'hori', 'vert']","yes",109,"diamond","yes",0,NA,2,"legacy",NA,1024,2,48000,-16,"experiment",17,"odd","red","no",6,"diamond",291182.4662,291257.2315,291257.2711,NA,304446.4516,NA,NA,29031.2507000003,1403.43359999997,NA,29031.2729000002,442477.4685,445358.9642,NA,NA,NA,NA,1403.51370000008,325789.1908,NA,NA,442477.4826,326158.493,442477.4209,"New experiment",19,"[0]","dist_present",56,72,"yes","yes",1680,NA,NA,NA,NA,"NR","NR","lp",NA,NA,NA,NA,NA,NA,"practice",4,"NR","in"
"33",1516.72779999988,59517.8526000007,59517.8526000007,10,10,"n",7,"['7', '3', '8', 'space']","n","#000000","no",443171.5363,1,"neutral","psycho","psycho","psycho",0,"uniform",1,0,0,0,NA,0,0,NA,0,0,0,0,32,32,NA,NA,NA,NA,0,0,0,NA,32,0,32,73.2296414732588,"Thu Sep 30 11:31:13 2021","The main experiment item","yes","red","no","1","diamond",NA,"pinging_target_expectations 4.0.osexp","C:\Users\etp-cp-ping\Desktop\LocalPC-EXP",75,"no","mono","no",18,"no","white","no","yes",1050,NA,100,"psycho",32,0,32,"C:/Users/etp-cp-ping/Desktop/LocalPC-EXP/subject-17.csv","psycho",12,33,33,"Lentiform Loewenfeld","3.3.8","['vert', 'hori', 'vert', 'hori', 'vert', 'hori', 'vert', 'hori']","yes",109,"diamond","yes",0,NA,2,"legacy",NA,1024,2,48000,-16,"experiment",17,"odd","green","no",3,"circle",291182.4662,291257.2315,291257.2711,NA,304446.4516,NA,NA,29031.2507000003,1403.43359999997,NA,29031.2729000002,445391.1141,448750.8198,NA,NA,NA,NA,1403.51370000008,325789.1908,NA,NA,445391.1284,326158.493,445391.0644,"New experiment",19,"[0]","dist_present",56,42,"yes","yes",1680,NA,NA,NA,NA,"NR","R","lp",NA,NA,NA,NA,NA,NA,"practice",6,"NR","in"
"34",2000.12210000021,61517.974700001,61517.974700001,10,10,"n",7,"['7', '3', '8', 'space']","n","#000000","no",443171.5363,1,"neutral","psycho","psycho","psycho",0,"uniform",0,0,0,0,NA,0,0,NA,0,0,0,0,33,33,NA,NA,NA,NA,0,0,0,NA,33,0,33,73.2296414732588,"Thu Sep 30 11:31:13 2021","The main experiment item","yes","red","no","5","circle",NA,"pinging_target_expectations 4.0.osexp","C:\Users\etp-cp-ping\Desktop\LocalPC-EXP",75,"no","mono","no",18,"no","white","no","yes",1050,NA,100,"psycho",33,0,33,"C:/Users/etp-cp-ping/Desktop/LocalPC-EXP/subject-17.csv","psycho",12,34,34,"Lentiform Loewenfeld","3.3.8","['hori', 'vert', 'hori', 'vert', 'hori', 'hori', 'vert', 'vert']","yes",109,"circles","yes",0,NA,2,"legacy",NA,1024,2,48000,-16,"experiment",17,"odd","green","no",4,"diamond",291182.4662,291257.2315,291257.2711,NA,304446.4516,NA,NA,29031.2507000003,1403.43359999997,NA,29031.2729000002,448782.0926,452720.6537,NA,NA,NA,NA,1403.51370000008,325789.1908,NA,NA,448782.1067,326158.493,448782.0432,"New experiment",19,"[0]","dist_present",56,56,"yes","yes",1680,NA,NA,NA,NA,"NR","NR","lp","Right",NA,NA,NA,NA,NA,"practice",3,"NR","in"
"35",1784.0794999997,63302.0542000007,63302.0542000007,11,11,"n",7,"['7', '3', '8', 'space']","n","#000000","no",443171.5363,1,"neutral","psycho","psycho","psycho",0,"uniform",1,0,0,0,NA,0,0,NA,0,0,0,0,34,34,NA,NA,NA,NA,0,0,0,NA,34,0,34,73.2296414732588,"Thu Sep 30 11:31:13 2021","The main experiment item","yes","green","no","None","diamond",NA,"pinging_target_expectations 4.0.osexp","C:\Users\etp-cp-ping\Desktop\LocalPC-EXP",75,"no","mono","no",18,"no","white","no","yes",1050,NA,100,"psycho",34,0,34,"C:/Users/etp-cp-ping/Desktop/LocalPC-EXP/subject-17.csv","psycho",12,35,35,"Lentiform Loewenfeld","3.3.8","['hori', 'hori', 'vert', 'vert', 'vert', 'vert', 'hori', 'hori']","no",209,"None","yes",0,NA,2,"legacy",NA,1024,2,48000,-16,"experiment",17,"odd","red","no",1,"circle",291182.4662,291257.2315,291257.2711,NA,304446.4516,NA,NA,29031.2507000003,1403.43359999997,NA,29031.2729000002,452751.0483,456366.8449,NA,NA,NA,NA,1403.51370000008,325789.1908,NA,NA,452751.0625,326158.493,452751.0002,"New experiment",19,"[0]","dist_absent",56,29,"yes","yes",1680,NA,NA,NA,NA,"NR","NR","lp",NA,"Left",NA,NA,NA,NA,"practice",4,"NR","in"
"36",1482.47300000006,64784.5272000007,64784.5272000007,12,12,"n",7,"['7', '3', '8', 'space']","n","#000000","no",456906.2783,1,"neutral","psycho","psycho","psycho",0,"uniform",1,0,0,0,NA,0,0,NA,0,0,0,0,35,35,NA,NA,NA,NA,0,0,0,NA,35,0,35,73.2296414732588,"Thu Sep 30 11:31:13 2021","The main experiment item","yes","red","no","7","circle",NA,"pinging_target_expectations 4.0.osexp","C:\Users\etp-cp-ping\Desktop\LocalPC-EXP",75,"no","mono","no",18,"no","white","no","yes",1050,NA,100,"psycho",35,0,35,"C:/Users/etp-cp-ping/Desktop/LocalPC-EXP/subject-17.csv","psycho",13,36,36,"Lentiform Loewenfeld","3.3.8","['hori', 'hori', 'hori', 'vert', 'vert', 'hori', 'vert', 'vert']","yes",109,"circles","yes",0,NA,2,"legacy",NA,1024,2,48000,-16,"experiment",17,"odd","green","no",0,"diamond",291182.4662,291257.2315,291257.2711,NA,304446.4516,NA,NA,29031.2507000003,1403.43359999997,NA,29031.2729000002,456397.1911,459838.9422,NA,NA,NA,NA,1403.51370000008,325789.1908,NA,NA,456397.2052,326158.493,456397.1424,"New experiment",19,"[0]","dist_present",56,18,"yes","yes",1680,NA,NA,NA,NA,"NR","NR","lp","Right",NA,NA,NA,NA,NA,"practice",1,"NR","in"
"37",1549.86829999962,66334.3955000003,66334.3955000003,13,13,"n",7,"['7', '3', '8', 'space']","n","#000000","no",460474.3442,1,"neutral","psycho","psycho","psycho",0,"uniform",1,0,0,0,NA,0,0,NA,0,0,0,0,36,36,NA,NA,NA,NA,0,0,0,NA,36,0,36,73.2296414732588,"Thu Sep 30 11:31:13 2021","The main experiment item","yes","red","no","1","diamond",NA,"pinging_target_expectations 4.0.osexp","C:\Users\etp-cp-ping\Desktop\LocalPC-EXP",75,"no","mono","no",18,"no","white","no","yes",1050,NA,100,"psycho",36,0,36,"C:/Users/etp-cp-ping/Desktop/LocalPC-EXP/subject-17.csv","psycho",14,37,37,"Lentiform Loewenfeld","3.3.8","['hori', 'vert', 'vert', 'hori', 'hori', 'vert', 'vert', 'hori']","no",209,"None","yes",0,NA,2,"legacy",NA,1024,2,48000,-16,"experiment",17,"odd","green","no",2,"circle",291182.4662,291257.2315,291257.2711,NA,304446.4516,NA,NA,29031.2507000003,1403.43359999997,NA,29031.2729000002,459869.6166,463374.7992,NA,NA,NA,NA,1403.51370000008,325789.1908,NA,NA,459869.6306,326158.493,459869.569,"New experiment",19,"[0]","dist_present",56,32,"yes","yes",1680,NA,NA,NA,NA,"NR","NR","lp",NA,NA,NA,NA,NA,NA,"practice",0,"NR","in"
"38",1767.1835000001,68101.5790000004,68101.5790000004,14,14,"n",7,"['7', '3', '8', 'space']","n","#000000","no",460474.3442,1,"neutral","psycho","psycho","psycho",0,"uniform",1,0,0,0,NA,0,0,NA,0,0,0,0,37,37,NA,NA,NA,NA,0,0,0,NA,37,0,37,73.2296414732588,"Thu Sep 30 11:31:13 2021","The main experiment item","yes","green","no","2","circle",NA,"pinging_target_expectations 4.0.osexp","C:\Users\etp-cp-ping\Desktop\LocalPC-EXP",75,"no","mono","no",18,"no","white","no","yes",1050,NA,100,"psycho",37,0,37,"C:/Users/etp-cp-ping/Desktop/LocalPC-EXP/subject-17.csv","psycho",14,38,38,"Lentiform Loewenfeld","3.3.8","['hori', 'hori', 'vert', 'hori', 'vert', 'vert', 'vert', 'hori']","no",209,"None","yes",0,NA,2,"legacy",NA,1024,2,48000,-16,"experiment",17,"odd","red","no",3,"diamond",291182.4662,291257.2315,291257.2711,NA,304446.4516,NA,NA,29031.2507000003,1403.43359999997,NA,29031.2729000002,463405.3687,467006.897,NA,NA,NA,NA,1403.51370000008,325789.1908,NA,NA,463405.383,326158.493,463405.3187,"New experiment",19,"[0]","dist_present",56,43,"yes","yes",1680,NA,NA,NA,NA,"NR","NR","lp",NA,NA,NA,NA,NA,NA,"practice",2,"NR","in"
"39",1558.19290000002,69659.7719000005,69659.7719000005,15,15,"n",7,"['7', '3', '8', 'space']","n","#000000","no",460474.3442,1,"neutral","psycho","psycho","psycho",0,"uniform",1,0,0,0,NA,0,0,NA,0,0,0,0,38,38,NA,NA,NA,NA,0,0,0,NA,38,0,38,73.2296414732588,"Thu Sep 30 11:31:13 2021","The main experiment item","yes","green","no","0","diamond",NA,"pinging_target_expectations 4.0.osexp","C:\Users\etp-cp-ping\Desktop\LocalPC-EXP",75,"no","mono","no",18,"no","white","no","yes",1050,NA,100,"psycho",38,0,38,"C:/Users/etp-cp-ping/Desktop/LocalPC-EXP/subject-17.csv","psycho",14,39,39,"Lentiform Loewenfeld","3.3.8","['vert', 'hori', 'hori', 'hori', 'vert', 'vert', 'vert', 'hori']","no",209,"None","yes",0,NA,2,"legacy",NA,1024,2,48000,-16,"experiment",17,"odd","red","no",7,"circle",291182.4662,291257.2315,291257.2711,NA,304446.4516,NA,NA,29031.2507000003,1403.43359999997,NA,29031.2729000002,467037.4252,470446.855,NA,NA,NA,NA,1403.51370000008,325789.1908,NA,NA,467037.4393,326158.493,467037.3775,"New experiment",19,"[0]","dist_present",56,81,"yes","yes",1680,NA,NA,NA,NA,"NR","NR","lp",NA,"Right",NA,NA,NA,NA,"practice",3,"NR","in"
"40",1381.59820000007,71041.3701000005,71041.3701000005,16,16,"n",7,"['7', '3', '8', 'space']","n","#000000","no",471118.0264,1,"neutral","psycho","psycho","psycho",0,"uniform",1,0,0,0,NA,0,0,NA,0,0,0,0,39,39,NA,NA,NA,NA,0,0,0,NA,39,0,39,73.2296414732588,"Thu Sep 30 11:31:13 2021","The main experiment item","yes","green","no","0","diamond",NA,"pinging_target_expectations 4.0.osexp","C:\Users\etp-cp-ping\Desktop\LocalPC-EXP",75,"no","mono","no",18,"no","white","no","yes",1050,NA,100,"psycho",39,0,39,"C:/Users/etp-cp-ping/Desktop/LocalPC-EXP/subject-17.csv","psycho",15,40,40,"Lentiform Loewenfeld","3.3.8","['hori', 'hori', 'hori', 'vert', 'vert', 'vert', 'vert', 'hori']","yes",109,"diamond","yes",0,NA,2,"legacy",NA,1024,2,48000,-16,"experiment",17,"odd","red","no",2,"circle",291182.4662,291257.2315,291257.2711,NA,304446.4516,NA,NA,29031.2507000003,1403.43359999997,NA,29031.2729000002,470477.3552,473870.8938,NA,NA,NA,NA,1403.51370000008,325789.1908,NA,NA,470477.3696,326158.493,470477.304,"New experiment",19,"[0]","dist_present",56,31,"yes","yes",1680,NA,NA,NA,NA,"NR","R","lp",NA,"Left",NA,"Left",NA,NA,"practice",7,"NR","in"
"41",1557.18670000031,72598.5568000008,72598.5568000008,17,17,"n",7,"['7', '3', '8', 'space']","n","#000000","no",474762.0968,1,"neutral","psycho","psycho","psycho",0,"uniform",1,0,0,0,NA,0,0,NA,0,0,0,0,40,40,NA,NA,NA,NA,0,0,0,NA,40,0,40,73.2296414732588,"Thu Sep 30 11:31:13 2021","The main experiment item","yes","green","no","None","diamond",NA,"pinging_target_expectations 4.0.osexp","C:\Users\etp-cp-ping\Desktop\LocalPC-EXP",75,"no","mono","no",18,"no","white","no","yes",1050,NA,100,"psycho",40,0,40,"C:/Users/etp-cp-ping/Desktop/LocalPC-EXP/subject-17.csv","psycho",16,41,41,"Lentiform Loewenfeld","3.3.8","['vert', 'hori', 'hori', 'vert', 'hori', 'vert', 'hori', 'vert']","no",209,"None","yes",0,NA,2,"legacy",NA,1024,2,48000,-16,"experiment",17,"odd","red","no",3,"circle",291182.4662,291257.2315,291257.2711,NA,304446.4516,NA,NA,29031.2507000003,1403.43359999997,NA,29031.2729000002,473901.7176,477422.8003,NA,NA,NA,NA,1403.51370000008,325789.1908,NA,NA,473901.7314,326158.493,473901.6686,"New experiment",19,"[0]","dist_absent",56,49,"yes","yes",1680,NA,NA,NA,NA,"NR","NR","lp",NA,"Left",NA,NA,NA,NA,"practice",2,"NR","in"
"42",1239.88540000026,73838.4422000011,73838.4422000011,18,18,"n",7,"['7', '3', '8', 'space']","n","#000000","no",474762.0968,1,"neutral","psycho","psycho","psycho",0,"uniform",1,0,0,0,NA,0,0,NA,0,0,0,0,41,41,NA,NA,NA,NA,0,0,0,NA,41,0,41,73.2296414732588,"Thu Sep 30 11:31:13 2021","The main experiment item","yes","green","no","None","circle",NA,"pinging_target_expectations 4.0.osexp","C:\Users\etp-cp-ping\Desktop\LocalPC-EXP",75,"no","mono","no",18,"no","white","no","yes",1050,NA,100,"psycho",41,0,41,"C:/Users/etp-cp-ping/Desktop/LocalPC-EXP/subject-17.csv","psycho",16,42,42,"Lentiform Loewenfeld","3.3.8","['hori', 'vert', 'hori', 'vert', 'hori', 'hori', 'vert', 'vert']","no",209,"None","yes",0,NA,2,"legacy",NA,1024,2,48000,-16,"experiment",17,"odd","red","no",5,"diamond",291182.4662,291257.2315,291257.2711,NA,304446.4516,NA,NA,29031.2507000003,1403.43359999997,NA,29031.2729000002,477453.2919,480494.7298,NA,NA,NA,NA,1403.51370000008,325789.1908,NA,NA,477453.3058,326158.493,477453.2425,"New experiment",19,"[0]","dist_absent",56,69,"yes","yes",1680,NA,NA,NA,NA,"NR","R","lp",NA,"Right",NA,NA,NA,NA,"practice",3,"NR","in"
"43",2000.91419999988,75839.356400001,75839.356400001,18,18,"n",7,"['7', '3', '8', 'space']","n","#000000","no",474762.0968,1,"neutral","psycho","psycho","psycho",0,"uniform",0,0,0,0,NA,0,0,NA,0,0,0,0,42,42,NA,NA,NA,NA,0,0,0,NA,42,0,42,73.2296414732588,"Thu Sep 30 11:31:13 2021","The main experiment item","yes","red","no","1","diamond",NA,"pinging_target_expectations 4.0.osexp","C:\Users\etp-cp-ping\Desktop\LocalPC-EXP",75,"no","mono","no",18,"no","white","no","yes",1050,NA,100,"psycho",42,0,42,"C:/Users/etp-cp-ping/Desktop/LocalPC-EXP/subject-17.csv","psycho",16,43,43,"Lentiform Loewenfeld","3.3.8","['hori', 'hori', 'vert', 'vert', 'hori', 'vert', 'vert', 'hori']","no",209,"None","yes",0,NA,2,"legacy",NA,1024,2,48000,-16,"experiment",17,"odd","green","no",4,"circle",291182.4662,291257.2315,291257.2711,NA,304446.4516,NA,NA,29031.2507000003,1403.43359999997,NA,29031.2729000002,480525.7903,484310.4096,NA,NA,NA,NA,1403.51370000008,325789.1908,NA,NA,480525.8042,326158.493,480525.7408,"New experiment",19,"[0]","dist_present",56,52,"yes","yes",1680,NA,NA,NA,NA,"NR","NR","lp","Left",NA,NA,NA,NA,NA,"practice",5,"NR","in"
"44",2000.23190000001,77839.588300001,77839.588300001,18,18,"n",7,"['7', '3', '8', 'space']","n","#000000","no",474762.0968,1,"neutral","psycho","psycho","psycho",0,"uniform",0,0,0,0,NA,0,0,NA,0,0,0,0,43,43,NA,NA,NA,NA,0,0,0,NA,43,0,43,73.2296414732588,"Thu Sep 30 11:31:13 2021","The main experiment item","yes","green","no","0","circle",NA,"pinging_target_expectations 4.0.osexp","C:\Users\etp-cp-ping\Desktop\LocalPC-EXP",75,"no","mono","no",18,"no","white","no","yes",1050,NA,100,"psycho",43,0,43,"C:/Users/etp-cp-ping/Desktop/LocalPC-EXP/subject-17.csv","psycho",16,44,44,"Lentiform Loewenfeld","3.3.8","['hori', 'vert', 'vert', 'hori', 'hori', 'vert', 'vert', 'hori']","yes",109,"circles","yes",0,NA,2,"legacy",NA,1024,2,48000,-16,"experiment",17,"odd","red","no",1,"diamond",291182.4662,291257.2315,291257.2711,NA,304446.4516,NA,NA,29031.2507000003,1403.43359999997,NA,29031.2729000002,484340.7258,488150.4829,NA,NA,NA,NA,1403.51370000008,325789.1908,NA,NA,484340.7403,326158.493,484340.6765,"New experiment",19,"[0]","dist_present",56,21,"yes","yes",1680,NA,NA,NA,NA,"NR","NR","lp",NA,"Left",NA,NA,NA,NA,"practice",4,"NR","in"
"45",1900.43229999993,79740.0206000009,79740.0206000009,19,19,"n",7,"['7', '3', '8', 'space']","n","#000000","no",488789.3379,1,"neutral","psycho","psycho","psycho",0,"uniform",1,0,0,0,NA,0,0,NA,0,0,0,0,44,44,NA,NA,NA,NA,0,0,0,NA,44,0,44,73.2296414732588,"Thu Sep 30 11:31:13 2021","The main experiment item","yes","red","no","3","circle",NA,"pinging_target_expectations 4.0.osexp","C:\Users\etp-cp-ping\Desktop\LocalPC-EXP",75,"no","mono","no",18,"no","white","no","yes",1050,NA,100,"psycho",44,0,44,"C:/Users/etp-cp-ping/Desktop/LocalPC-EXP/subject-17.csv","psycho",17,45,45,"Lentiform Loewenfeld","3.3.8","['vert', 'vert', 'vert', 'hori', 'hori', 'hori', 'vert', 'hori']","no",209,"None","yes",0,NA,2,"legacy",NA,1024,2,48000,-16,"experiment",17,"odd","green","no",1,"diamond",291182.4662,291257.2315,291257.2711,NA,304446.4516,NA,NA,29031.2507000003,1403.43359999997,NA,29031.2729000002,488180.633,492014.86,NA,NA,NA,NA,1403.51370000008,325789.1908,NA,NA,488180.6468,326158.493,488180.5845,"New experiment",19,"[0]","dist_present",56,24,"yes","yes",1680,NA,NA,NA,NA,"R","NR","lp",NA,NA,NA,NA,NA,NA,"practice",1,"NR","in"
"46",1099.6345999997,80839.6552000006,80839.6552000006,20,20,"n",7,"['7', '3', '8', 'space']","n","#000000","no",488789.3379,1,"neutral","psycho","psycho","psycho",0,"uniform",1,0,0,0,NA,0,0,NA,0,0,0,0,45,45,NA,NA,NA,NA,0,0,0,NA,45,0,45,73.2296414732588,"Thu Sep 30 11:31:13 2021","The main experiment item","yes","red","no","None","circle",NA,"pinging_target_expectations 4.0.osexp","C:\Users\etp-cp-ping\Desktop\LocalPC-EXP",75,"no","mono","no",18,"no","white","no","yes",1050,NA,100,"psycho",45,0,45,"C:/Users/etp-cp-ping/Desktop/LocalPC-EXP/subject-17.csv","psycho",17,46,46,"Lentiform Loewenfeld","3.3.8","['hori', 'hori', 'vert', 'hori', 'vert', 'vert', 'hori', 'vert']","yes",109,"diamond","yes",0,NA,2,"legacy",NA,1024,2,48000,-16,"experiment",17,"odd","green","no",2,"diamond",291182.4662,291257.2315,291257.2711,NA,304446.4516,NA,NA,29031.2507000003,1403.43359999997,NA,29031.2729000002,492046.9954,495134.7198,NA,NA,NA,NA,1403.51370000008,325789.1908,NA,NA,492047.0096,326158.493,492046.9466,"New experiment",19,"[0]","dist_absent",56,39,"yes","yes",1680,NA,NA,NA,NA,"NR","NR","lp",NA,"Left",NA,"Left",NA,NA,"practice",1,"R","in"
"47",2000.71829999977,82840.3735000004,82840.3735000004,20,20,"n",7,"['7', '3', '8', 'space']","n","#000000","no",488789.3379,1,"neutral","psycho","psycho","psycho",0,"uniform",0,0,0,0,NA,0,0,NA,0,0,0,0,46,46,NA,NA,NA,NA,0,0,0,NA,46,0,46,73.2296414732588,"Thu Sep 30 11:31:13 2021","The main experiment item","yes","red","no","None","diamond",NA,"pinging_target_expectations 4.0.osexp","C:\Users\etp-cp-ping\Desktop\LocalPC-EXP",75,"no","mono","no",18,"no","white","no","yes",1050,NA,100,"psycho",46,0,46,"C:/Users/etp-cp-ping/Desktop/LocalPC-EXP/subject-17.csv","psycho",17,47,47,"Lentiform Loewenfeld","3.3.8","['vert', 'vert', 'hori', 'vert', 'hori', 'hori', 'vert', 'hori']","no",209,"None","yes",0,NA,2,"legacy",NA,1024,2,48000,-16,"experiment",17,"odd","green","no",7,"circle",291182.4662,291257.2315,291257.2711,NA,304446.4516,NA,NA,29031.2507000003,1403.43359999997,NA,29031.2729000002,495165.1541,498970.224,NA,NA,NA,NA,1403.51370000008,325789.1908,NA,NA,495165.1684,326158.493,495165.1064,"New experiment",19,"[0]","dist_absent",56,89,"yes","yes",1680,NA,NA,NA,NA,"NR","R","lp",NA,"Right",NA,NA,NA,NA,"practice",2,"NR","in"
"48",2000.24660000007,84840.6201000005,84840.6201000005,20,20,"n",7,"['7', '3', '8', 'space']","n","#000000","no",488789.3379,1,"neutral","psycho","psycho","psycho",0,"uniform",0,0,0,0,NA,0,0,NA,0,0,0,0,47,47,NA,NA,NA,NA,0,0,0,NA,47,0,47,73.2296414732588,"Thu Sep 30 11:31:13 2021","The main experiment item","yes","green","no","6","diamond",NA,"pinging_target_expectations 4.0.osexp","C:\Users\etp-cp-ping\Desktop\LocalPC-EXP",75,"no","mono","no",18,"no","white","no","yes",1050,NA,100,"psycho",47,0,47,"C:/Users/etp-cp-ping/Desktop/LocalPC-EXP/subject-17.csv","psycho",17,48,48,"Lentiform Loewenfeld","3.3.8","['vert', 'hori', 'hori', 'vert', 'hori', 'vert', 'hori', 'vert']","yes",109,"diamond","yes",0,NA,2,"legacy",NA,1024,2,48000,-16,"experiment",17,"odd","red","no",0,"circle",291182.4662,291257.2315,291257.2711,NA,304446.4516,NA,NA,29031.2507000003,1403.43359999997,NA,29031.2729000002,499000.5445,503063.3849,NA,NA,NA,NA,1403.51370000008,325789.1908,NA,NA,499000.5586,326158.493,499000.4967,"New experiment",19,"[0]","dist_present",56,17,"yes","yes",1680,NA,NA,NA,NA,"NR","NR","lp","Right",NA,"Right",NA,NA,NA,"practice",7,"NR","in"
"49",1299.89870000008,86140.5188000005,86140.5188000005,21,21,"n",7,"['7', '3', '8', 'space']","n","#000000","no",503574.5852,1,"neutral","psycho","psycho","psycho",0,"uniform",1,0,0,0,NA,0,0,NA,0,0,0,0,48,48,NA,NA,NA,NA,0,0,0,NA,48,0,48,73.2296414732588,"Thu Sep 30 11:31:13 2021","The main experiment item","yes","red","no","7","circle",NA,"pinging_target_expectations 4.0.osexp","C:\Users\etp-cp-ping\Desktop\LocalPC-EXP",75,"no","mono","no",18,"no","white","no","yes",1050,NA,100,"psycho",48,0,48,"C:/Users/etp-cp-ping/Desktop/LocalPC-EXP/subject-17.csv","psycho",18,49,49,"Lentiform Loewenfeld","3.3.8","['hori', 'hori', 'hori', 'vert', 'hori', 'vert', 'vert', 'vert']","no",209,"None","yes",0,NA,2,"legacy",NA,1024,2,48000,-16,"experiment",17,"odd","green","no",2,"diamond",291182.4662,291257.2315,291257.2711,NA,304446.4516,NA,NA,29031.2507000003,1403.43359999997,NA,29031.2729000002,503093.6939,506366.7476,NA,NA,NA,NA,1403.51370000008,325789.1908,NA,NA,503093.7082,326158.493,503093.6445,"New experiment",19,"[0]","dist_present",56,38,"yes","yes",1680,NA,NA,NA,NA,"NR","NR","lp",NA,NA,NA,NA,NA,NA,"practice",0,"NR","in"
"50",2000.69570000004,88141.2145000006,88141.2145000006,21,21,"n",7,"['7', '3', '8', 'space']","n","#000000","no",503574.5852,1,"neutral","psycho","psycho","psycho",0,"uniform",0,0,0,0,NA,0,0,NA,0,0,0,0,49,49,NA,NA,NA,NA,0,0,0,NA,49,0,49,73.2296414732588,"Thu Sep 30 11:31:13 2021","The main experiment item","yes","red","no","0","diamond",NA,"pinging_target_expectations 4.0.osexp","C:\Users\etp-cp-ping\Desktop\LocalPC-EXP",75,"no","mono","no",18,"no","white","no","yes",1050,NA,100,"psycho",49,0,49,"C:/Users/etp-cp-ping/Desktop/LocalPC-EXP/subject-17.csv","psycho",18,50,50,"Lentiform Loewenfeld","3.3.8","['vert', 'hori', 'vert', 'hori', 'hori', 'vert', 'vert', 'hori']","yes",109,"diamond","yes",0,NA,2,"legacy",NA,1024,2,48000,-16,"experiment",17,"odd","green","no",7,"circle",291182.4662,291257.2315,291257.2711,NA,304446.4516,NA,NA,29031.2507000003,1403.43359999997,NA,29031.2729000002,506397.3997,510234.641,NA,NA,NA,NA,1403.51370000008,325789.1908,NA,NA,506397.4142,326158.493,506397.35,"New experiment",19,"[0]","dist_present",56,81,"yes","yes",1680,NA,NA,NA,NA,"NR","NR","lp",NA,"Right",NA,NA,NA,NA,"practice",2,"NR","in"
"51",1684.34710000019,89825.5616000008,89825.5616000008,22,22,"n",7,"['7', '3', '8', 'space']","n","#000000","no",510806.7191,1,"neutral","psycho","psycho","psycho",0,"uniform",1,0,0,0,NA,0,0,NA,0,0,0,0,50,50,NA,NA,NA,NA,0,0,0,NA,50,0,50,73.2296414732588,"Thu Sep 30 11:31:13 2021","The main experiment item","yes","red","no","None","diamond",NA,"pinging_target_expectations 4.0.osexp","C:\Users\etp-cp-ping\Desktop\LocalPC-EXP",75,"no","mono","no",18,"no","white","no","yes",1050,NA,100,"psycho",50,0,50,"C:/Users/etp-cp-ping/Desktop/LocalPC-EXP/subject-17.csv","psycho",19,51,51,"Lentiform Loewenfeld","3.3.8","['hori', 'vert', 'vert', 'vert', 'hori', 'hori', 'vert', 'hori']","no",209,"None","yes",0,NA,2,"legacy",NA,1024,2,48000,-16,"experiment",17,"odd","green","no",7,"circle",291182.4662,291257.2315,291257.2711,NA,304446.4516,NA,NA,29031.2507000003,1403.43359999997,NA,29031.2729000002,510264.9775,513934.8311,NA,NA,NA,NA,1403.51370000008,325789.1908,NA,NA,510264.9914,326158.493,510264.9289,"New experiment",19,"[0]","dist_absent",56,89,"yes","yes",1680,NA,NA,NA,NA,"R","NR","lp",NA,"Right",NA,NA,NA,NA,"practice",7,"NR","in"
"52",987.07569999987,90812.6373000006,90812.6373000006,23,23,"n",7,"['7', '3', '8', 'space']","n","#000000","no",510806.7191,1,"neutral","psycho","psycho","psycho",0,"uniform",1,0,0,0,NA,0,0,NA,0,0,0,0,51,51,NA,NA,NA,NA,0,0,0,NA,51,0,51,73.2296414732588,"Thu Sep 30 11:31:13 2021","The main experiment item","yes","green","no","0","circle",NA,"pinging_target_expectations 4.0.osexp","C:\Users\etp-cp-ping\Desktop\LocalPC-EXP",75,"no","mono","no",18,"no","white","no","yes",1050,NA,100,"psycho",51,0,51,"C:/Users/etp-cp-ping/Desktop/LocalPC-EXP/subject-17.csv","psycho",19,52,52,"Lentiform Loewenfeld","3.3.8","['hori', 'hori', 'hori', 'hori', 'vert', 'vert', 'vert', 'vert']","yes",109,"circles","yes",0,NA,2,"legacy",NA,1024,2,48000,-16,"experiment",17,"odd","red","no",1,"diamond",291182.4662,291257.2315,291257.2711,NA,304446.4516,NA,NA,29031.2507000003,1403.43359999997,NA,29031.2729000002,513965.8874,516734.7776,NA,NA,NA,NA,1403.51370000008,325789.1908,NA,NA,513965.9018,326158.493,513965.8357,"New experiment",19,"[0]","dist_present",56,21,"yes","yes",1680,NA,NA,NA,NA,"NR","NR","lp",NA,"Left",NA,NA,NA,NA,"practice",7,"R","in"
"53",819.338000000222,91631.9753000009,91631.9753000009,24,24,"n",7,"['7', '3', '8', 'space']","n","#000000","no",510806.7191,1,"neutral","psycho","psycho","psycho",0,"uniform",1,0,0,0,NA,0,0,NA,0,0,0,0,52,52,NA,NA,NA,NA,0,0,0,NA,52,0,52,73.2296414732588,"Thu Sep 30 11:31:13 2021","The main experiment item","yes","green","no","None","circle",NA,"pinging_target_expectations 4.0.osexp","C:\Users\etp-cp-ping\Desktop\LocalPC-EXP",75,"no","mono","no",18,"no","white","no","yes",1050,NA,100,"psycho",52,0,52,"C:/Users/etp-cp-ping/Desktop/LocalPC-EXP/subject-17.csv","psycho",19,53,53,"Lentiform Loewenfeld","3.3.8","['hori', 'vert', 'hori', 'vert', 'hori', 'vert', 'vert', 'hori']","yes",109,"circles","yes",0,NA,2,"legacy",NA,1024,2,48000,-16,"experiment",17,"odd","red","no",3,"diamond",291182.4662,291257.2315,291257.2711,NA,304446.4516,NA,NA,29031.2507000003,1403.43359999997,NA,29031.2729000002,516765.1778,519534.6383,NA,NA,NA,NA,1403.51370000008,325789.1908,NA,NA,516765.1923,326158.493,516765.1286,"New experiment",19,"[0, 74.01681098308423, 73.2780844865361, 73.24021450676119, 73.55573394436693, 73.63156031760623, 73.4932105840622, 73.87183490305047, 74.43867462077431, 73.36980085991071, 73.46108492620739, 74.12960715683545, 74.10055120883564, 73.30900592097215, 73.34807905244514, 73.35013064091441, 73.49830835173414, 73.50780909568086, 74.27946095868393, 73.64681034057476, 73.98161247482578, 73.35402742756764, 73.29117286896532, 73.33955712743695, 74.39039603974102, 75.18845715504617, 74.76634655477713, 73.4327133413472, 73.5435339475758, 73.51746005115847, 74.730225161811, 75.01375515140312, 75.35434719776863, 74.33281186775224, 74.29775636964482, 76.2656677358528, 74.57890729346022, 73.91999930741379, 73.93575578762595, 74.11048096371033, 74.02925804952781, 73.67148911285571, 74.77974549912629, 74.12960715683545, 73.33108030615622, 73.85189237965962, 73.92624243994288, 74.09424168173409, 73.87132731492112, 74.48340514236618, 73.83255368661891, 74.87724646763131]","dist_absent",56,49,"yes","yes",1680,NA,NA,NA,NA,"NR","NR","lp",NA,"Left",NA,NA,NA,NA,"practice",1,"NR","in"
"54",2000.69760000042,93632.6729000013,93632.6729000013,24,24,"n",7,"['7', '3', '8', 'space']","n","#000000","no",510806.7191,1,"neutral","psycho","psycho","psycho",0,"uniform",0,0,0,0,NA,0,0,NA,0,0,0,0,53,53,NA,NA,NA,NA,0,0,0,NA,53,0,53,73.2296414732588,"Thu Sep 30 11:31:13 2021","The main experiment item","yes","red","no","4","diamond",NA,"pinging_target_expectations 4.0.osexp","C:\Users\etp-cp-ping\Desktop\LocalPC-EXP",75,"no","mono","no",18,"no","white","no","yes",1050,NA,100,"psycho",53,0,53,"C:/Users/etp-cp-ping/Desktop/LocalPC-EXP/subject-17.csv","psycho",19,54,54,"Lentiform Loewenfeld","3.3.8","['hori', 'hori', 'vert', 'hori', 'hori', 'vert', 'vert', 'vert']","yes",109,"diamond","yes",0,NA,2,"legacy",NA,1024,2,48000,-16,"experiment",17,"odd","green","no",0,"circle",291182.4662,291257.2315,291257.2711,NA,304446.4516,NA,NA,29031.2507000003,1403.43359999997,NA,29031.2729000002,519565.043,523416.4255,NA,NA,NA,NA,1403.51370000008,325789.1908,NA,NA,519565.0572,326158.493,519564.993,"New experiment",19,"[0]","dist_present",56,15,"yes","yes",1680,NA,NA,NA,NA,"NR","NR","lp",NA,NA,NA,NA,NA,NA,"practice",3,"NR","in"
"55",1982.42889999982,95615.1018000011,95615.1018000011,25,25,"n",7,"['7', '3', '8', 'space']","n","#000000","no",510806.7191,1,"neutral","psycho","psycho","psycho",0,"uniform",1,0,0,0,NA,0,0,NA,0,0,0,0,54,54,NA,NA,NA,NA,0,0,0,NA,54,0,54,73.2296414732588,"Thu Sep 30 11:31:13 2021","The main experiment item","yes","red","no","4","circle",NA,"pinging_target_expectations 4.0.osexp","C:\Users\etp-cp-ping\Desktop\LocalPC-EXP",75,"no","mono","no",18,"no","white","no","yes",1050,NA,100,"psycho",54,0,54,"C:/Users/etp-cp-ping/Desktop/LocalPC-EXP/subject-17.csv","psycho",19,55,55,"Lentiform Loewenfeld","3.3.8","['vert', 'hori', 'vert', 'hori', 'vert', 'hori', 'vert', 'hori']","yes",109,"circles","yes",0,NA,2,"legacy",NA,1024,2,48000,-16,"experiment",17,"odd","green","no",7,"diamond",291182.4662,291257.2315,291257.2711,NA,304446.4516,NA,NA,29031.2507000003,1403.43359999997,NA,29031.2729000002,523446.8654,527086.7853,NA,NA,NA,NA,1403.51370000008,325789.1908,NA,NA,523446.88,326158.493,523446.8174,"New experiment",19,"[0]","dist_present",56,85,"yes","yes",1680,NA,NA,NA,NA,"NR","R","lp",NA,"Right",NA,NA,NA,NA,"practice",0,"NR","in"
"56",1320.13639999973,96935.2382000008,96935.2382000008,26,26,"n",7,"['7', '3', '8', 'space']","n","#000000","no",510806.7191,1,"neutral","psycho","psycho","psycho",0,"uniform",1,0,0,0,NA,0,0,NA,0,0,0,0,55,55,NA,NA,NA,NA,0,0,0,NA,55,0,55,73.2296414732588,"Thu Sep 30 11:31:13 2021","The main experiment item","yes","red","no","6","diamond",NA,"pinging_target_expectations 4.0.osexp","C:\Users\etp-cp-ping\Desktop\LocalPC-EXP",75,"no","mono","no",18,"no","white","no","yes",1050,NA,100,"psycho",55,0,55,"C:/Users/etp-cp-ping/Desktop/LocalPC-EXP/subject-17.csv","psycho",19,56,56,"Lentiform Loewenfeld","3.3.8","['vert', 'vert', 'hori', 'vert', 'vert', 'hori', 'hori', 'hori']","no",209,"None","yes",0,NA,2,"legacy",NA,1024,2,48000,-16,"experiment",17,"odd","green","no",5,"circle",291182.4662,291257.2315,291257.2711,NA,304446.4516,NA,NA,29031.2507000003,1403.43359999997,NA,29031.2729000002,527119.7771,530254.6161,NA,NA,NA,NA,1403.51370000008,325789.1908,NA,NA,527119.7918,326158.493,527119.7284,"New experiment",19,"[0]","dist_present",56,67,"yes","yes",1680,NA,NA,NA,NA,"NR","NR","lp",NA,NA,NA,NA,NA,NA,"practice",7,"NR","in"
"57",1219.70879999979,1219.70879999979,98154.9470000006,1,27,"n",7,"['7', '3', '8', 'space']","n","#000000","no",678204.5286,2,"bias","psycho","psycho","psycho",0,"uniform",1,0,1,1,NA,1,0,NA,0,0,1,0,56,56,NA,NA,NA,NA,0,1,1,NA,56,1,56,73.2296414732588,"Thu Sep 30 11:31:13 2021","The main experiment item","yes","green","no","None","diamond",NA,"pinging_target_expectations 4.0.osexp","C:\Users\etp-cp-ping\Desktop\LocalPC-EXP",75,"no","mono","no",18,"no","white","no","yes",1050,NA,4,"psycho",0,1,0,"C:/Users/etp-cp-ping/Desktop/LocalPC-EXP/subject-17.csv","psycho",1,57,1,"Lentiform Loewenfeld","3.3.8","['hori', 'hori', 'hori', 'hori', 'vert', 'vert', 'vert', 'vert']","no",204,"None","no",0,NA,2,"legacy",NA,1024,2,48000,-16,"experiment",17,"odd","red","no",1,"circle",291182.4662,649048.6065,649048.6547,NA,673730.6375,NA,NA,29031.2507000003,1403.43359999997,530791.0993,29031.2729000002,676108.6335,679262.25,NA,NA,NA,NA,1403.51370000008,675731.5374,530284.5873,NA,676108.6485,676104.3831,676108.5919,"New experiment",19,"[0]","dist_absent",56,29,"yes","yes",1680,NA,NA,"no hp","True","NR","NR","lp",NA,"Left",NA,NA,3,NA,"first",999,"NR","in"
"58",1656.55319999997,2876.26199999976,99811.5002000006,2,28,"n",7,"['7', '3', '8', 'space']","n","#000000","no",678204.5286,2,"bias","psycho","psycho","psycho",0,"uniform",1,0,1,1,NA,1,0,NA,0,0,1,0,57,57,NA,NA,NA,NA,0,1,1,NA,57,1,57,73.2296414732588,"Thu Sep 30 11:31:13 2021","The main experiment item","yes","green","no","5","diamond",NA,"pinging_target_expectations 4.0.osexp","C:\Users\etp-cp-ping\Desktop\LocalPC-EXP",75,"no","mono","no",18,"no","white","no","yes",1050,NA,4,"psycho",1,1,1,"C:/Users/etp-cp-ping/Desktop/LocalPC-EXP/subject-17.csv","psycho",1,58,2,"Lentiform Loewenfeld","3.3.8","['hori', 'vert', 'vert', 'vert', 'hori', 'hori', 'vert', 'hori']","no",204,"None","no",0,NA,2,"legacy",NA,1024,2,48000,-16,"experiment",17,"odd","red","no",0,"circle",291182.4662,649048.6065,649048.6547,NA,673730.6375,NA,NA,29031.2507000003,1403.43359999997,530791.0993,29031.2729000002,679293.7372,682686.342,NA,NA,NA,NA,1403.51370000008,675731.5374,530284.5873,NA,679293.7512,676104.3831,679293.6915,"New experiment",19,"[0]","dist_present",56,16,"yes","yes",1680,NA,NA,"no hp","True","NR","NR","lp","Right",NA,NA,NA,4,-1,"first",1,"NR","in"
"59",1166.89589999989,4043.15789999964,100978.3961,3,29,"n",7,"['7', '3', '8', 'space']","n","#000000","no",678204.5286,2,"bias","psycho","psycho","psycho",0,"uniform",1,0,1,1,NA,1,0,NA,0,0,1,0,58,58,NA,NA,NA,NA,0,1,1,NA,58,1,58,73.2296414732588,"Thu Sep 30 11:31:13 2021","The main experiment item","yes","green","yes","4","diamond",NA,"pinging_target_expectations 4.0.osexp","C:\Users\etp-cp-ping\Desktop\LocalPC-EXP",75,"no","mono","no",18,"no","white","no","yes",1050,NA,4,"psycho",2,1,2,"C:/Users/etp-cp-ping/Desktop/LocalPC-EXP/subject-17.csv","psycho",1,59,3,"Lentiform Loewenfeld","3.3.8","['hori', 'vert', 'vert', 'vert', 'hori', 'hori', 'hori', 'vert']","no",204,"None","no",0,NA,2,"legacy",NA,1024,2,48000,-16,"experiment",17,"odd","red","no",2,"circle",291182.4662,649048.6065,649048.6547,NA,673730.6375,NA,NA,29031.2507000003,1403.43359999997,530791.0993,29031.2729000002,682717.118,685886.3587,NA,NA,NA,NA,1403.51370000008,675731.5374,530284.5873,NA,682717.1322,676104.3831,682717.069,"New experiment",19,"[0]","dist_present",56,35,"yes","yes",1680,NA,NA,"no hp","True","NR","NR","lp",NA,"Left",NA,"Left",2,0,"first",0,"NR","in"
"60",1160.2799000002,5203.43779999984,102138.676000001,4,30,"n",7,"['7', '3', '8', 'space']","n","#000000","no",678204.5286,2,"bias","psycho","psycho","psycho",0,"uniform",1,0,1,1,NA,1,0,NA,0,0,1,0,59,59,NA,NA,NA,NA,0,1,1,NA,59,1,59,73.2296414732588,"Thu Sep 30 11:31:13 2021","The main experiment item","yes","red","no","None","circle",NA,"pinging_target_expectations 4.0.osexp","C:\Users\etp-cp-ping\Desktop\LocalPC-EXP",75,"no","mono","no",18,"no","white","no","yes",1050,NA,4,"psycho",3,1,3,"C:/Users/etp-cp-ping/Desktop/LocalPC-EXP/subject-17.csv","psycho",1,60,4,"Lentiform Loewenfeld","3.3.8","['hori', 'hori', 'vert', 'vert', 'hori', 'hori', 'vert', 'vert']","yes",104,"circles","no",0,NA,2,"legacy",NA,1024,2,48000,-16,"experiment",17,"odd","green","yes",4,"diamond",291182.4662,649048.6065,649048.6547,NA,673730.6375,NA,NA,29031.2507000003,1403.43359999997,530791.0993,29031.2729000002,685918.0146,689070.4075,NA,NA,NA,NA,1403.51370000008,675731.5374,530284.5873,NA,685918.0284,676104.3831,685917.9657,"New experiment",19,"[0]","dist_absent",56,59,"yes","yes",1680,NA,NA,"no hp","True","NR","NR","lp",NA,NA,NA,NA,0,NA,"first",2,"NR","ex"
"61",1223.2598,6426.69759999984,103361.935800001,4,30,"n",7,"['7', '3', '8', 'space']","n","#000000","no",678204.5286,2,"bias","psycho","psycho","psycho",0,"uniform",0,0,1,1,NA,1,0,NA,0,0,1,0,60,60,NA,NA,NA,NA,0,1,1,NA,60,1,60,73.2296414732588,"Thu Sep 30 11:31:13 2021","The main experiment item","yes","red","yes","4","diamond",NA,"pinging_target_expectations 4.0.osexp","C:\Users\etp-cp-ping\Desktop\LocalPC-EXP",75,"no","mono","no",18,"no","white","no","yes",1050,NA,4,"psycho",4,1,4,"C:/Users/etp-cp-ping/Desktop/LocalPC-EXP/subject-17.csv","psycho",1,61,5,"Lentiform Loewenfeld","3.3.8","['hori', 'vert', 'hori', 'vert', 'hori', 'hori', 'vert', 'vert']","yes",104,"diamond","no",0,NA,2,"legacy",NA,1024,2,48000,-16,"experiment",17,"odd","green","no",3,"circle",291182.4662,649048.6065,649048.6547,NA,673730.6375,NA,NA,29031.2507000003,1403.43359999997,530791.0993,29031.2729000002,689103.1527,692334.2329,NA,NA,NA,NA,1403.51370000008,675731.5374,530284.5873,NA,689103.1668,676104.3831,689103.105,"New experiment",19,"[0]","dist_present",56,45,"yes","yes",1680,NA,NA,"no hp","True","NR","NR","hp",NA,"Left",NA,NA,1,0,"first",4,"NR","in"
"62",1014.01069999975,7440.70829999959,104375.9465,4,30,"n",7,"['7', '3', '8', 'space']","n","#000000","no",694087.4376,2,"bias","psycho","psycho","psycho",0,"uniform",0,0,1,1,NA,1,0,NA,0,0,1,0,61,61,NA,NA,NA,NA,0,1,1,NA,61,1,61,73.2296414732588,"Thu Sep 30 11:31:13 2021","The main experiment item","yes","green","no","1","circle",NA,"pinging_target_expectations 4.0.osexp","C:\Users\etp-cp-ping\Desktop\LocalPC-EXP",75,"no","mono","no",18,"no","white","no","yes",1050,NA,4,"psycho",5,1,5,"C:/Users/etp-cp-ping/Desktop/LocalPC-EXP/subject-17.csv","psycho",2,62,6,"Lentiform Loewenfeld","3.3.8","['hori', 'hori', 'hori', 'vert', 'hori', 'vert', 'vert', 'vert']","yes",104,"diamond","no",0,NA,2,"legacy",NA,1024,2,48000,-16,"experiment",17,"odd","red","no",5,"diamond",291182.4662,649048.6065,649048.6547,NA,673730.6375,NA,NA,29031.2507000003,1403.43359999997,530791.0993,29031.2729000002,692365.1122,695566.2733,NA,NA,NA,NA,1403.51370000008,675731.5374,530284.5873,NA,692365.1264,676104.3831,692365.064,"New experiment",19,"[0]","dist_present",56,62,"yes","yes",1680,NA,NA,"no hp","True","NR","NR","lp",NA,NA,NA,NA,-1,3,"first",3,"NR","in"
"63",1430.81880000001,8871.5270999996,105806.7653,5,31,"n",7,"['7', '3', '8', 'space']","n","#000000","no",694087.4376,2,"bias","psycho","psycho","psycho",0,"uniform",1,0,1,1,NA,1,0,NA,0,0,1,0,62,62,NA,NA,NA,NA,0,1,1,NA,62,1,62,73.2296414732588,"Thu Sep 30 11:31:13 2021","The main experiment item","yes","red","no","5","circle",NA,"pinging_target_expectations 4.0.osexp","C:\Users\etp-cp-ping\Desktop\LocalPC-EXP",75,"no","mono","no",18,"no","white","no","yes",1050,NA,4,"psycho",6,1,6,"C:/Users/etp-cp-ping/Desktop/LocalPC-EXP/subject-17.csv","psycho",2,63,7,"Lentiform Loewenfeld","3.3.8","['hori', 'hori', 'vert', 'vert', 'hori', 'hori', 'vert', 'vert']","no",204,"None","no",0,NA,2,"legacy",NA,1024,2,48000,-16,"experiment",17,"odd","green","no",7,"diamond",291182.4662,649048.6065,649048.6547,NA,673730.6375,NA,NA,29031.2507000003,1403.43359999997,530791.0993,29031.2729000002,695597.0891,698974.2154,NA,NA,NA,NA,1403.51370000008,675731.5374,530284.5873,NA,695597.1034,676104.3831,695597.0388,"New experiment",19,"[0]","dist_present",56,86,"yes","yes",1680,NA,NA,"no hp","True","NR","NR","lp",NA,NA,NA,NA,-3,-1,"first",5,"NR","in"
"64",1134.54330000014,10006.0703999997,106941.308600001,6,32,"n",7,"['7', '3', '8', 'space']","n","#000000","no",694087.4376,2,"bias","psycho","psycho","psycho",0,"uniform",1,0,1,1,NA,1,0,NA,0,0,1,0,63,63,NA,NA,NA,NA,0,1,1,NA,63,1,63,73.2296414732588,"Thu Sep 30 11:31:13 2021","The main experiment item","yes","red","no","3","circle",NA,"pinging_target_expectations 4.0.osexp","C:\Users\etp-cp-ping\Desktop\LocalPC-EXP",75,"no","mono","no",18,"no","white","no","yes",1050,NA,4,"psycho",7,1,7,"C:/Users/etp-cp-ping/Desktop/LocalPC-EXP/subject-17.csv","psycho",2,64,8,"Lentiform Loewenfeld","3.3.8","['hori', 'hori', 'hori', 'vert', 'vert', 'vert', 'hori', 'vert']","no",204,"None","no",0,NA,2,"legacy",NA,1024,2,48000,-16,"experiment",17,"odd","green","no",2,"diamond",291182.4662,649048.6065,649048.6547,NA,673730.6375,NA,NA,29031.2507000003,1403.43359999997,530791.0993,29031.2729000002,699004.9377,702078.2012,NA,NA,NA,NA,1403.51370000008,675731.5374,530284.5873,NA,699004.952,676104.3831,699004.8875,"New experiment",19,"[0]","dist_present",56,34,"yes","yes",1680,NA,NA,"no hp","True","NR","NR","lp",NA,NA,NA,NA,2,1,"first",7,"NR","in"
"65",1515.42830000026,11521.4987,108456.736900001,7,33,"n",7,"['7', '3', '8', 'space']","n","#000000","no",694087.4376,2,"bias","psycho","psycho","psycho",0,"uniform",1,0,1,1,NA,1,0,NA,0,0,1,0,64,64,NA,NA,NA,NA,0,1,1,NA,64,1,64,73.2296414732588,"Thu Sep 30 11:31:13 2021","The main experiment item","yes","green","no","3","diamond",NA,"pinging_target_expectations 4.0.osexp","C:\Users\etp-cp-ping\Desktop\LocalPC-EXP",75,"no","mono","no",18,"no","white","no","yes",1050,NA,4,"psycho",8,1,8,"C:/Users/etp-cp-ping/Desktop/LocalPC-EXP/subject-17.csv","psycho",2,65,9,"Lentiform Loewenfeld","3.3.8","['hori', 'vert', 'vert', 'hori', 'vert', 'hori', 'hori', 'vert']","no",204,"None","no",0,NA,2,"legacy",NA,1024,2,48000,-16,"experiment",17,"odd","red","no",7,"circle",291182.4662,649048.6065,649048.6547,NA,673730.6375,NA,NA,29031.2507000003,1403.43359999997,530791.0993,29031.2729000002,702108.9156,705582.2365,NA,NA,NA,NA,1403.51370000008,675731.5374,530284.5873,NA,702108.93,676104.3831,702108.8661,"New experiment",19,"[0]","dist_present",56,84,"yes","yes",1680,NA,NA,"no hp","True","NR","R","lp",NA,NA,NA,NA,-3,1,"first",2,"NR","in"
"66",1726.55470000021,13248.0534000002,110183.291600001,7,33,"n",7,"['7', '3', '8', 'space']","n","#000000","no",705986.1383,2,"bias","psycho","psycho","psycho",0,"uniform",0,0,1,1,NA,1,0,NA,0,0,1,0,65,65,NA,NA,NA,NA,0,1,1,NA,65,1,65,73.2296414732588,"Thu Sep 30 11:31:13 2021","The main experiment item","yes","red","no","7","circle",NA,"pinging_target_expectations 4.0.osexp","C:\Users\etp-cp-ping\Desktop\LocalPC-EXP",75,"no","mono","no",18,"no","white","no","yes",1050,NA,4,"psycho",9,1,9,"C:/Users/etp-cp-ping/Desktop/LocalPC-EXP/subject-17.csv","psycho",3,66,10,"Lentiform Loewenfeld","3.3.8","['hori', 'vert', 'hori', 'vert', 'hori', 'vert', 'vert', 'hori']","yes",104,"diamond","no",0,NA,2,"legacy",NA,1024,2,48000,-16,"experiment",17,"odd","green","no",0,"diamond",291182.4662,649048.6065,649048.6547,NA,673730.6375,NA,NA,29031.2507000003,1403.43359999997,530791.0993,29031.2729000002,705613.1899,709326.2043,NA,NA,NA,NA,1403.51370000008,675731.5374,530284.5873,NA,705613.2043,676104.3831,705613.1413,"New experiment",19,"[0]","dist_present",56,18,"yes","yes",1680,NA,NA,"no hp","True","NR","NR","lp","Right",NA,NA,NA,4,-3,"first",7,"NR","in"
"67",1837.96990000014,15086.0233000003,112021.261500001,7,33,"n",7,"['7', '3', '8', 'space']","n","#000000","no",705986.1383,2,"bias","psycho","psycho","psycho",0,"uniform",0,0,1,1,NA,1,0,NA,0,0,1,0,66,66,NA,NA,NA,NA,0,1,1,NA,66,1,66,73.2296414732588,"Thu Sep 30 11:31:13 2021","The main experiment item","yes","red","no","1","diamond",NA,"pinging_target_expectations 4.0.osexp","C:\Users\etp-cp-ping\Desktop\LocalPC-EXP",75,"no","mono","no",18,"no","white","no","yes",1050,NA,4,"psycho",10,1,10,"C:/Users/etp-cp-ping/Desktop/LocalPC-EXP/subject-17.csv","psycho",3,67,11,"Lentiform Loewenfeld","3.3.8","['vert', 'vert', 'hori', 'vert', 'vert', 'hori', 'hori', 'hori']","yes",104,"circles","no",0,NA,2,"legacy",NA,1024,2,48000,-16,"experiment",17,"odd","green","yes",4,"circle",291182.4662,649048.6065,649048.6547,NA,673730.6375,NA,NA,29031.2507000003,1403.43359999997,530791.0993,29031.2729000002,709356.9749,712974.2964,NA,NA,NA,NA,1403.51370000008,675731.5374,530284.5873,NA,709356.9893,676104.3831,709356.9238,"New experiment",19,"[0]","dist_present",56,52,"yes","yes",1680,NA,NA,"no hp","True","NR","NR","lp","Left",NA,NA,NA,0,3,"first",0,"NR","ex"
"68",2000.92369999993,17086.9470000003,114022.185200001,7,33,"n",7,"['7', '3', '8', 'space']","n","#000000","no",705986.1383,2,"bias","psycho","psycho","psycho",0,"uniform",0,0,1,1,NA,1,0,NA,0,0,1,0,67,67,NA,NA,NA,NA,0,1,1,NA,67,1,67,73.2296414732588,"Thu Sep 30 11:31:13 2021","The main experiment item","yes","green","no","5","diamond",NA,"pinging_target_expectations 4.0.osexp","C:\Users\etp-cp-ping\Desktop\LocalPC-EXP",75,"no","mono","no",18,"no","white","no","yes",1050,NA,4,"psycho",11,1,11,"C:/Users/etp-cp-ping/Desktop/LocalPC-EXP/subject-17.csv","psycho",3,68,12,"Lentiform Loewenfeld","3.3.8","['vert', 'vert', 'hori', 'vert', 'hori', 'hori', 'hori', 'vert']","no",204,"None","no",0,NA,2,"legacy",NA,1024,2,48000,-16,"experiment",17,"odd","red","yes",4,"circle",291182.4662,649048.6065,649048.6547,NA,673730.6375,NA,NA,29031.2507000003,1403.43359999997,530791.0993,29031.2729000002,713005.122,716774.458,NA,NA,NA,NA,1403.51370000008,675731.5374,530284.5873,NA,713005.1362,676104.3831,713005.0742,"New experiment",19,"[0]","dist_present",56,56,"yes","yes",1680,NA,NA,"no hp","True","R","NR","hp","Right",NA,NA,NA,0,-1,"first",4,"NR","ex"
"69",1778.18029999977,18865.1273000001,115800.365500001,8,34,"n",7,"['7', '3', '8', 'space']","n","#000000","no",705986.1383,2,"bias","psycho","psycho","psycho",0,"uniform",1,0,1,1,NA,1,0,NA,0,0,1,0,68,68,NA,NA,NA,NA,0,1,1,NA,68,1,68,73.2296414732588,"Thu Sep 30 11:31:13 2021","The main experiment item","yes","red","no","6","diamond",NA,"pinging_target_expectations 4.0.osexp","C:\Users\etp-cp-ping\Desktop\LocalPC-EXP",75,"no","mono","no",18,"no","white","no","yes",1050,NA,4,"psycho",12,1,12,"C:/Users/etp-cp-ping/Desktop/LocalPC-EXP/subject-17.csv","psycho",3,69,13,"Lentiform Loewenfeld","3.3.8","['vert', 'hori', 'vert', 'hori', 'hori', 'vert', 'vert', 'hori']","yes",104,"circles","no",0,NA,2,"legacy",NA,1024,2,48000,-16,"experiment",17,"odd","green","no",5,"circle",291182.4662,649048.6065,649048.6547,NA,673730.6375,NA,NA,29031.2507000003,1403.43359999997,530791.0993,29031.2729000002,716805.1653,720462.1774,NA,NA,NA,NA,1403.51370000008,675731.5374,530284.5873,NA,716805.1792,676104.3831,716805.1155,"New experiment",19,"[0]","dist_present",56,67,"yes","yes",1680,NA,NA,"no hp","True","NR","NR","hp",NA,NA,NA,NA,-1,-2,"first",4,"R","in"
"70",1116.07129999995,19981.1986,116916.436800001,9,35,"n",7,"['7', '3', '8', 'space']","n","#000000","no",705986.1383,2,"bias","psycho","psycho","psycho",0,"uniform",1,0,1,1,NA,1,0,NA,0,0,1,0,69,69,NA,NA,NA,NA,0,1,1,NA,69,1,69,73.2296414732588,"Thu Sep 30 11:31:13 2021","The main experiment item","yes","green","no","7","diamond",NA,"pinging_target_expectations 4.0.osexp","C:\Users\etp-cp-ping\Desktop\LocalPC-EXP",75,"no","mono","no",18,"no","white","no","yes",1050,NA,4,"psycho",13,1,13,"C:/Users/etp-cp-ping/Desktop/LocalPC-EXP/subject-17.csv","psycho",3,70,14,"Lentiform Loewenfeld","3.3.8","['vert', 'vert', 'vert', 'vert', 'hori', 'hori', 'hori', 'hori']","yes",104,"circles","no",0,NA,2,"legacy",NA,1024,2,48000,-16,"experiment",17,"odd","red","no",6,"circle",291182.4662,649048.6065,649048.6547,NA,673730.6375,NA,NA,29031.2507000003,1403.43359999997,530791.0993,29031.2729000002,720492.897,723598.1521,NA,NA,NA,NA,1403.51370000008,675731.5374,530284.5873,NA,720492.911,676104.3831,720492.8488,"New experiment",19,"[0]","dist_present",56,78,"yes","yes",1680,NA,NA,"no hp","True","NR","NR","lp",NA,NA,NA,NA,-2,-3,"first",5,"NR","in"
"71",1373.34270000015,21354.5413000002,118289.779500001,10,36,"n",7,"['7', '3', '8', 'space']","n","#000000","no",705986.1383,2,"bias","psycho","psycho","psycho",0,"uniform",1,0,1,1,NA,1,0,NA,0,0,1,0,70,70,NA,NA,NA,NA,0,1,1,NA,70,1,70,73.2296414732588,"Thu Sep 30 11:31:13 2021","The main experiment item","yes","red","no","None","circle",NA,"pinging_target_expectations 4.0.osexp","C:\Users\etp-cp-ping\Desktop\LocalPC-EXP",75,"no","mono","no",18,"no","white","no","yes",1050,NA,4,"psycho",14,1,14,"C:/Users/etp-cp-ping/Desktop/LocalPC-EXP/subject-17.csv","psycho",3,71,15,"Lentiform Loewenfeld","3.3.8","['vert', 'hori', 'hori', 'vert', 'vert', 'vert', 'hori', 'hori']","yes",104,"circles","no",0,NA,2,"legacy",NA,1024,2,48000,-16,"experiment",17,"odd","green","no",0,"diamond",291182.4662,649048.6065,649048.6547,NA,673730.6375,NA,NA,29031.2507000003,1403.43359999997,530791.0993,29031.2729000002,723628.9493,726814.1384,NA,NA,NA,NA,1403.51370000008,675731.5374,530284.5873,NA,723628.9635,676104.3831,723628.9017,"New experiment",19,"[0]","dist_absent",56,19,"yes","yes",1680,NA,NA,"no hp","True","NR","NR","lp",NA,NA,NA,NA,4,NA,"first",6,"NR","in"
"72",1175.18229999999,22529.7236000001,119464.961800001,11,37,"n",7,"['7', '3', '8', 'space']","n","#000000","no",705986.1383,2,"bias","psycho","psycho","psycho",0,"uniform",1,0,1,1,NA,1,0,NA,0,0,1,0,71,71,NA,NA,NA,NA,0,1,1,NA,71,1,71,73.2296414732588,"Thu Sep 30 11:31:13 2021","The main experiment item","yes","green","no","2","circle",NA,"pinging_target_expectations 4.0.osexp","C:\Users\etp-cp-ping\Desktop\LocalPC-EXP",75,"no","mono","no",18,"no","white","no","yes",1050,NA,4,"psycho",15,1,15,"C:/Users/etp-cp-ping/Desktop/LocalPC-EXP/subject-17.csv","psycho",3,72,16,"Lentiform Loewenfeld","3.3.8","['hori', 'hori', 'hori', 'hori', 'vert', 'vert', 'vert', 'vert']","no",204,"None","no",0,NA,2,"legacy",NA,1024,2,48000,-16,"experiment",17,"odd","red","yes",4,"diamond",291182.4662,649048.6065,649048.6547,NA,673730.6375,NA,NA,29031.2507000003,1403.43359999997,530791.0993,29031.2729000002,726845.001,730046.1193,NA,NA,NA,NA,1403.51370000008,675731.5374,530284.5873,NA,726845.0151,676104.3831,726844.9516,"New experiment",19,"[0]","dist_present",56,53,"yes","yes",1680,NA,NA,"no hp","True","NR","NR","lp","Left",NA,"Left",NA,0,2,"first",0,"NR","ex"
"73",1244.63770000008,23774.3613000002,120709.599500001,12,38,"n",7,"['7', '3', '8', 'space']","n","#000000","no",705986.1383,2,"bias","psycho","psycho","psycho",0,"uniform",1,0,1,1,NA,1,0,NA,0,0,1,0,72,72,NA,NA,NA,NA,0,1,1,NA,72,1,72,73.2296414732588,"Thu Sep 30 11:31:13 2021","The main experiment item","yes","green","no","None","circle",NA,"pinging_target_expectations 4.0.osexp","C:\Users\etp-cp-ping\Desktop\LocalPC-EXP",75,"no","mono","no",18,"no","white","no","yes",1050,NA,4,"psycho",16,1,16,"C:/Users/etp-cp-ping/Desktop/LocalPC-EXP/subject-17.csv","psycho",3,73,17,"Lentiform Loewenfeld","3.3.8","['hori', 'vert', 'hori', 'vert', 'vert', 'hori', 'vert', 'hori']","no",204,"None","no",0,NA,2,"legacy",NA,1024,2,48000,-16,"experiment",17,"odd","red","no",6,"diamond",291182.4662,649048.6065,649048.6547,NA,673730.6375,NA,NA,29031.2507000003,1403.43359999997,530791.0993,29031.2729000002,730076.8245,733038.1028,NA,NA,NA,NA,1403.51370000008,675731.5374,530284.5873,NA,730076.8384,676104.3831,730076.7765,"New experiment",19,"[0]","dist_absent",56,79,"yes","yes",1680,NA,NA,"no hp","True","NR","NR","hp",NA,"Right",NA,"Right",-2,NA,"first",4,"NR","in"
"74",1537.52250000031,25311.8838000005,122247.122000001,13,39,"n",7,"['7', '3', '8', 'space']","n","#000000","no",705986.1383,2,"bias","psycho","psycho","psycho",0,"uniform",1,0,1,1,NA,1,0,NA,0,0,1,0,73,73,NA,NA,NA,NA,0,1,1,NA,73,1,73,73.2296414732588,"Thu Sep 30 11:31:13 2021","The main experiment item","yes","green","no","1","circle",NA,"pinging_target_expectations 4.0.osexp","C:\Users\etp-cp-ping\Desktop\LocalPC-EXP",75,"no","mono","no",18,"no","white","no","yes",1050,NA,4,"psycho",17,1,17,"C:/Users/etp-cp-ping/Desktop/LocalPC-EXP/subject-17.csv","psycho",3,74,18,"Lentiform Loewenfeld","3.3.8","['vert', 'hori', 'vert', 'vert', 'hori', 'hori', 'hori', 'vert']","yes",104,"circles","no",0,NA,2,"legacy",NA,1024,2,48000,-16,"experiment",17,"odd","red","yes",4,"diamond",291182.4662,649048.6065,649048.6547,NA,673730.6375,NA,NA,29031.2507000003,1403.43359999997,530791.0993,29031.2729000002,733068.8087,736238.1398,NA,NA,NA,NA,1403.51370000008,675731.5374,530284.5873,NA,733068.8228,676104.3831,733068.7603,"New experiment",19,"[0]","dist_present",56,52,"yes","yes",1680,NA,NA,"no hp","True","NR","NR","lp","Left",NA,NA,NA,0,3,"first",6,"NR","ex"
"75",1387.46609999996,26699.3499000005,123634.588100001,14,40,"n",7,"['7', '3', '8', 'space']","n","#000000","no",705986.1383,2,"bias","psycho","psycho","psycho",0,"uniform",1,0,1,1,NA,1,0,NA,0,0,1,0,74,74,NA,NA,NA,NA,0,1,1,NA,74,1,74,73.2296414732588,"Thu Sep 30 11:31:13 2021","The main experiment item","yes","red","no","2","circle",NA,"pinging_target_expectations 4.0.osexp","C:\Users\etp-cp-ping\Desktop\LocalPC-EXP",75,"no","mono","no",18,"no","white","no","yes",1050,NA,4,"psycho",18,1,18,"C:/Users/etp-cp-ping/Desktop/LocalPC-EXP/subject-17.csv","psycho",3,75,19,"Lentiform Loewenfeld","3.3.8","['hori', 'hori', 'vert', 'vert', 'hori', 'vert', 'hori', 'vert']","yes",104,"circles","no",0,NA,2,"legacy",NA,1024,2,48000,-16,"experiment",17,"odd","green","yes",4,"diamond",291182.4662,649048.6065,649048.6547,NA,673730.6375,NA,NA,29031.2507000003,1403.43359999997,530791.0993,29031.2729000002,736269.0706,739758.0956,NA,NA,NA,NA,1403.51370000008,675731.5374,530284.5873,NA,736269.0847,676104.3831,736269.0214,"New experiment",19,"[0]","dist_present",56,53,"yes","yes",1680,NA,NA,"no hp","True","R","NR","hp","Left",NA,"Left",NA,0,2,"first",4,"NR","ex"
"76",1073.80509999976,27773.1550000003,124708.393200001,15,41,"n",7,"['7', '3', '8', 'space']","n","#000000","no",705986.1383,2,"bias","psycho","psycho","psycho",0,"uniform",1,0,1,1,NA,1,0,NA,0,0,1,0,75,75,NA,NA,NA,NA,0,1,1,NA,75,1,75,73.2296414732588,"Thu Sep 30 11:31:13 2021","The main experiment item","yes","green","no","6","diamond",NA,"pinging_target_expectations 4.0.osexp","C:\Users\etp-cp-ping\Desktop\LocalPC-EXP",75,"no","mono","no",18,"no","white","no","yes",1050,NA,4,"psycho",19,1,19,"C:/Users/etp-cp-ping/Desktop/LocalPC-EXP/subject-17.csv","psycho",3,76,20,"Lentiform Loewenfeld","3.3.8","['hori', 'hori', 'hori', 'hori', 'vert', 'vert', 'vert', 'vert']","yes",104,"circles","no",0,NA,2,"legacy",NA,1024,2,48000,-16,"experiment",17,"odd","red","yes",4,"circle",291182.4662,649048.6065,649048.6547,NA,673730.6375,NA,NA,29031.2507000003,1403.43359999997,530791.0993,29031.2729000002,739788.9518,742718.0781,NA,NA,NA,NA,1403.51370000008,675731.5374,530284.5873,NA,739788.9659,676104.3831,739788.903,"New experiment",19,"[0]","dist_present",56,57,"yes","yes",1680,NA,NA,"no hp","True","R","NR","hp","Right",NA,"Right",NA,0,-2,"first",4,"R","ex"
"77",1558.49790000007,29331.6529000003,126266.891100001,15,41,"n",7,"['7', '3', '8', 'space']","n","#000000","no",705986.1383,2,"bias","psycho","psycho","psycho",0,"uniform",0,0,1,1,NA,1,0,NA,0,0,1,0,76,76,NA,NA,NA,NA,0,1,1,NA,76,1,76,73.2296414732588,"Thu Sep 30 11:31:13 2021","The main experiment item","yes","green","no","3","circle",NA,"pinging_target_expectations 4.0.osexp","C:\Users\etp-cp-ping\Desktop\LocalPC-EXP",75,"no","mono","no",18,"no","white","no","yes",1050,NA,4,"psycho",20,1,20,"C:/Users/etp-cp-ping/Desktop/LocalPC-EXP/subject-17.csv","psycho",3,77,21,"Lentiform Loewenfeld","3.3.8","['hori', 'vert', 'vert', 'hori', 'vert', 'vert', 'hori', 'hori']","no",204,"None","no",0,NA,2,"legacy",NA,1024,2,48000,-16,"experiment",17,"odd","red","no",1,"diamond",291182.4662,649048.6065,649048.6547,NA,673730.6375,NA,NA,29031.2507000003,1403.43359999997,530791.0993,29031.2729000002,742748.8195,746302.1027,NA,NA,NA,NA,1403.51370000008,675731.5374,530284.5873,NA,742748.8337,676104.3831,742748.7701,"New experiment",19,"[0]","dist_present",56,24,"yes","yes",1680,NA,NA,"no hp","True","NR","NR","hp",NA,NA,NA,NA,3,1,"first",4,"R","in"
"78",1586.45470000012,30918.1076000005,127853.345800001,16,42,"n",7,"['7', '3', '8', 'space']","n","#000000","no",705986.1383,2,"bias","psycho","psycho","psycho",0,"uniform",1,0,1,1,NA,1,0,NA,0,0,1,0,77,77,NA,NA,NA,NA,0,1,1,NA,77,1,77,73.2296414732588,"Thu Sep 30 11:31:13 2021","The main experiment item","yes","red","yes","4","circle",NA,"pinging_target_expectations 4.0.osexp","C:\Users\etp-cp-ping\Desktop\LocalPC-EXP",75,"no","mono","no",18,"no","white","no","yes",1050,NA,4,"psycho",21,1,21,"C:/Users/etp-cp-ping/Desktop/LocalPC-EXP/subject-17.csv","psycho",3,78,22,"Lentiform Loewenfeld","3.3.8","['vert', 'vert', 'vert', 'hori', 'hori', 'hori', 'hori', 'vert']","yes",104,"diamond","no",0,NA,2,"legacy",NA,1024,2,48000,-16,"experiment",17,"odd","green","no",6,"diamond",291182.4662,649048.6065,649048.6547,NA,673730.6375,NA,NA,29031.2507000003,1403.43359999997,530791.0993,29031.2729000002,746333.0384,749710.1398,NA,NA,NA,NA,1403.51370000008,675731.5374,530284.5873,NA,746333.0529,676104.3831,746332.9864,"New experiment",19,"[0]","dist_present",56,75,"yes","yes",1680,NA,NA,"no hp","True","NR","NR","lp",NA,"Right",NA,"Right",-2,0,"first",1,"NR","in"
"79",1577.01010000031,32495.1177000008,129430.355900002,17,43,"n",7,"['7', '3', '8', 'space']","n","#000000","no",750402.4326,2,"bias","psycho","psycho","psycho",0,"uniform",1,0,1,1,NA,1,0,NA,0,0,1,0,78,78,NA,NA,NA,NA,0,1,1,NA,78,1,78,73.2296414732588,"Thu Sep 30 11:31:13 2021","The main experiment item","yes","red","yes","4","diamond",NA,"pinging_target_expectations 4.0.osexp","C:\Users\etp-cp-ping\Desktop\LocalPC-EXP",75,"no","mono","no",18,"no","white","no","yes",1050,NA,4,"psycho",22,1,22,"C:/Users/etp-cp-ping/Desktop/LocalPC-EXP/subject-17.csv","psycho",4,79,23,"Lentiform Loewenfeld","3.3.8","['vert', 'hori', 'vert', 'hori', 'vert', 'hori', 'vert', 'hori']","yes",104,"diamond","no",0,NA,2,"legacy",NA,1024,2,48000,-16,"experiment",17,"odd","green","no",5,"circle",291182.4662,649048.6065,649048.6547,NA,673730.6375,NA,NA,29031.2507000003,1403.43359999997,530791.0993,29031.2729000002,749741.1543,753518.1508,NA,NA,NA,NA,1403.51370000008,675731.5374,530284.5873,NA,749741.1686,676104.3831,749741.1034,"New experiment",19,"[0]","dist_present",56,65,"yes","yes",1680,NA,NA,"no hp","True","NR","R","lp",NA,"Right",NA,NA,-1,0,"first",6,"NR","in"
"80",1452.88170000003,33947.9994000008,130883.237600002,18,44,"n",7,"['7', '3', '8', 'space']","n","#000000","no",750402.4326,2,"bias","psycho","psycho","psycho",0,"uniform",1,0,1,1,NA,1,0,NA,0,0,1,0,79,79,NA,NA,NA,NA,0,1,1,NA,79,1,79,73.2296414732588,"Thu Sep 30 11:31:13 2021","The main experiment item","yes","red","no","3","circle",NA,"pinging_target_expectations 4.0.osexp","C:\Users\etp-cp-ping\Desktop\LocalPC-EXP",75,"no","mono","no",18,"no","white","no","yes",1050,NA,4,"psycho",23,1,23,"C:/Users/etp-cp-ping/Desktop/LocalPC-EXP/subject-17.csv","psycho",4,80,24,"Lentiform Loewenfeld","3.3.8","['vert', 'vert', 'hori', 'hori', 'vert', 'hori', 'hori', 'vert']","yes",104,"diamond","no",0,NA,2,"legacy",NA,1024,2,48000,-16,"experiment",17,"odd","green","no",0,"diamond",291182.4662,649048.6065,649048.6547,NA,673730.6375,NA,NA,29031.2507000003,1403.43359999997,530791.0993,29031.2729000002,753549.129,757102.1292,NA,NA,NA,NA,1403.51370000008,675731.5374,530284.5873,NA,753549.1436,676104.3831,753549.0806,"New experiment",19,"[0]","dist_present",56,14,"yes","yes",1680,NA,NA,"no hp","True","NR","NR","lp","Left",NA,NA,NA,4,1,"first",5,"NR","in"
"81",1723.18779999972,35671.1872000005,132606.425400001,19,45,"n",7,"['7', '3', '8', 'space']","n","#000000","no",750402.4326,2,"bias","psycho","psycho","psycho",0,"uniform",1,0,1,1,NA,1,0,NA,0,0,1,0,80,80,NA,NA,NA,NA,0,1,1,NA,80,1,80,73.2296414732588,"Thu Sep 30 11:31:13 2021","The main experiment item","yes","red","no","None","circle",NA,"pinging_target_expectations 4.0.osexp","C:\Users\etp-cp-ping\Desktop\LocalPC-EXP",75,"no","mono","no",18,"no","white","no","yes",1050,NA,4,"psycho",24,1,24,"C:/Users/etp-cp-ping/Desktop/LocalPC-EXP/subject-17.csv","psycho",4,81,25,"Lentiform Loewenfeld","3.3.8","['hori', 'vert', 'vert', 'vert', 'hori', 'vert', 'hori', 'hori']","yes",104,"diamond","no",0,NA,2,"legacy",NA,1024,2,48000,-16,"experiment",17,"odd","green","no",7,"diamond",291182.4662,649048.6065,649048.6547,NA,673730.6375,NA,NA,29031.2507000003,1403.43359999997,530791.0993,29031.2729000002,757133.0158,760638.1702,NA,NA,NA,NA,1403.51370000008,675731.5374,530284.5873,NA,757133.03,676104.3831,757132.9673,"New experiment",19,"[0]","dist_absent",56,89,"yes","yes",1680,NA,NA,"no hp","True","NR","NR","lp",NA,"Right",NA,NA,-3,NA,"first",0,"NR","in"
"82",1213.02119999973,36884.2084000002,133819.446600001,20,46,"n",7,"['7', '3', '8', 'space']","n","#000000","no",750402.4326,2,"bias","psycho","psycho","psycho",0,"uniform",1,0,1,1,NA,1,0,NA,0,0,1,0,81,81,NA,NA,NA,NA,0,1,1,NA,81,1,81,73.2296414732588,"Thu Sep 30 11:31:13 2021","The main experiment item","yes","red","no","2","circle",NA,"pinging_target_expectations 4.0.osexp","C:\Users\etp-cp-ping\Desktop\LocalPC-EXP",75,"no","mono","no",18,"no","white","no","yes",1050,NA,4,"psycho",25,1,25,"C:/Users/etp-cp-ping/Desktop/LocalPC-EXP/subject-17.csv","psycho",4,82,26,"Lentiform Loewenfeld","3.3.8","['vert', 'hori', 'vert', 'vert', 'hori', 'hori', 'vert', 'hori']","yes",104,"circles","no",0,NA,2,"legacy",NA,1024,2,48000,-16,"experiment",17,"odd","green","yes",4,"diamond",291182.4662,649048.6065,649048.6547,NA,673730.6375,NA,NA,29031.2507000003,1403.43359999997,530791.0993,29031.2729000002,760669.0694,763982.1809,NA,NA,NA,NA,1403.51370000008,675731.5374,530284.5873,NA,760669.0837,676104.3831,760669.0219,"New experiment",19,"[0]","dist_present",56,53,"yes","yes",1680,NA,NA,"no hp","True","NR","NR","lp","Left",NA,"Left",NA,0,2,"first",7,"NR","ex"
"83",1922.89220000023,38807.1006000005,135742.338800001,20,46,"n",7,"['7', '3', '8', 'space']","n","#000000","no",750402.4326,2,"bias","psycho","psycho","psycho",0,"uniform",0,0,1,1,NA,1,0,NA,0,0,1,0,82,82,NA,NA,NA,NA,0,1,1,NA,82,1,82,73.2296414732588,"Thu Sep 30 11:31:13 2021","The main experiment item","yes","green","no","3","diamond",NA,"pinging_target_expectations 4.0.osexp","C:\Users\etp-cp-ping\Desktop\LocalPC-EXP",75,"no","mono","no",18,"no","white","no","yes",1050,NA,4,"psycho",26,1,26,"C:/Users/etp-cp-ping/Desktop/LocalPC-EXP/subject-17.csv","psycho",4,83,27,"Lentiform Loewenfeld","3.3.8","['vert', 'vert', 'hori', 'hori', 'hori', 'hori', 'vert', 'vert']","no",204,"None","no",0,NA,2,"legacy",NA,1024,2,48000,-16,"experiment",17,"odd","red","yes",4,"circle",291182.4662,649048.6065,649048.6547,NA,673730.6375,NA,NA,29031.2507000003,1403.43359999997,530791.0993,29031.2729000002,764012.998,767966.2483,NA,NA,NA,NA,1403.51370000008,675731.5374,530284.5873,NA,764013.0123,676104.3831,764012.9485,"New experiment",19,"[0]","dist_present",56,54,"yes","yes",1680,NA,NA,"no hp","True","R","NR","hp","Left",NA,NA,NA,0,1,"first",4,"NR","ex"
"84",1418.48200000008,40225.5826000005,137160.820800001,21,47,"n",7,"['7', '3', '8', 'space']","n","#000000","no",768566.263,2,"bias","psycho","psycho","psycho",0,"uniform",1,0,1,1,NA,1,0,NA,0,0,1,0,83,83,NA,NA,NA,NA,0,1,1,NA,83,1,83,73.2296414732588,"Thu Sep 30 11:31:13 2021","The main experiment item","yes","green","yes","4","circle",NA,"pinging_target_expectations 4.0.osexp","C:\Users\etp-cp-ping\Desktop\LocalPC-EXP",75,"no","mono","no",18,"no","white","no","yes",1050,NA,4,"psycho",27,1,27,"C:/Users/etp-cp-ping/Desktop/LocalPC-EXP/subject-17.csv","psycho",5,84,28,"Lentiform Loewenfeld","3.3.8","['vert', 'hori', 'vert', 'hori', 'vert', 'hori', 'hori', 'vert']","yes",104,"circles","no",0,NA,2,"legacy",NA,1024,2,48000,-16,"experiment",17,"odd","red","no",1,"diamond",291182.4662,649048.6065,649048.6547,NA,673730.6375,NA,NA,29031.2507000003,1403.43359999997,530791.0993,29031.2729000002,767997.157,771566.0925,NA,NA,NA,NA,1403.51370000008,675731.5374,530284.5873,NA,767997.1712,676104.3831,767997.1092,"New experiment",19,"[0]","dist_present",56,25,"yes","yes",1680,NA,NA,"no hp","True","NR","NR","hp",NA,"Left",NA,NA,3,0,"first",4,"R","in"
